Folder: XRD_mixture/xy_files (part 4)

File: MgMn4(FeO6)2.xy
# 2-theta (degrees)	Intensity
8.7208	0.655468
20.0752	0.25179
20.1113	0.40781
21.8577	0.219404
21.9896	0.166448
22.0754	0.134166
26.5771	0.434364
26.678	0.0313588
26.8568	0.0456117
33.1436	0.378691
33.2711	0.290646
33.4982	0.516535
35.1495	0.0623447
35.2139	7.53507
36.1878	5.9125
36.276	5.91191
36.4211	8.36108
39.321	1.72894
39.5043	2.11257
39.7549	2.48982
40.7863	0.22984
40.8532	0.0370842
40.8885	0.0670609
41.172	0.117387
41.3275	0.206312
41.7466	0.00184174
41.8795	0.15246
42.0129	0.00805717
44.2487	2.20715
44.4918	6.44513
44.5657	0.231069
44.6859	0.15336
44.7983	1.59438
44.8658	0.220482
48.9506	0.25491
49.1249	0.115539
49.2799	0.130663
49.4326	0.086902
49.5833	0.0717033
49.6538	0.29794
50.4103	0.403711
50.7273	0.617835
51.1236	0.481528
54.2817	0.450234
54.8701	0.032294
54.9464	0.00746331
54.9581	0.146052
55.3442	0.120226
55.6029	0.0740865
55.6592	0.0448523
55.7156	0.0420934
55.7394	0.0661817
55.7757	0.0377599
55.9337	0.0255372
55.9782	0.0115922
57.7522	0.0813571
57.902	0.0759309
58.0298	0.086956
58.0934	0.0302368
58.164	0.0731716
58.1686	0.03129
58.3337	0.074751
58.3991	0.0907572
58.4711	0.123188
58.5085	0.090563
58.6366	0.027408
61.6025	0.0822678
61.6515	0.023739
61.7365	0.044103
61.8237	0.00854341
61.9127	0.140334
62.024	0.0011415
62.3075	0.0225135
62.3738	0.0906022
62.4045	0.0535728
63.0518	4.08523
63.1767	0.0190087
63.7681	4.00611
63.8748	0.00983551
64.0649	3.60882
65.8173	0.0244443
65.891	0.388013
65.9501	1.9507
66.1994	0.0143205
66.3625	0.161276
66.6317	0.0171436
66.6982	0.142
66.7923	0.106051
66.9351	0.0586385
67.1554	0.066351
67.4913	0.13033
67.6172	0.0836654
67.7926	0.118921
67.9743	0.204768
68.3004	0.272281
69.2575	1.07432
69.4556	1.15029
69.7615	0.0934326
69.8357	1.02484
70.1103	1.03638
70.3902	0.0317985
72.8682	0.0589893
72.9371	0.0384708
73.2476	0.12754
73.5055	0.13138
73.9105	0.0571297
74.0041	0.0565838
74.0704	0.0539709
74.2737	0.0434156
74.3496	0.746664
74.7489	0.323639
74.8933	0.102513
74.9664	1.09882
74.9963	0.103582
75.0273	0.0965504
75.1793	0.121212
75.419	1.09331
75.9562	0.297951
76.8004	0.970085
77.0145	0.996622
77.3672	1.00099
77.8647	0.0118093
77.933	0.0216279
78.0216	0.0116815
78.1518	0.126004
78.3489	0.112849
78.4494	0.00794771
78.5101	0.0204156
78.5747	0.00563877
78.5966	0.00648636
78.6679	0.0647395
78.6909	0.010499
78.7709	0.0963726
78.8772	0.0734796
79.3356	0.0342938
79.7027	0.130935
80.0407	0.123407
80.177	0.0960315
80.32	0.0727528
80.3311	0.066555
80.371	0.00469773
80.4401	0.00262565
80.4525	0.00174183
80.5073	0.00788431
80.6718	0.0214822
80.7014	0.0497899
80.8306	0.00188637
80.926	0.0738465
80.9288	0.218113
80.9968	0.0376796
81.0594	0.043386
81.3394	0.220109
81.4787	0.0829695
81.6403	0.0649856
83.5767	0.00560545
83.7422	0.0046511
83.8676	0.00752791
84.0774	0.012951
84.3728	0.00172656
84.5536	0.0307511
84.7208	0.934489
85.0488	0.903631
85.1263	0.983136
85.5799	0.335427
85.7521	0.921165
86.1072	0.101859
87.1915	0.062044
87.5989	0.0503347
88.1083	0.0292486
88.3123	0.0433745
88.3371	0.058405
88.4022	0.0145988
88.5358	0.0172189
88.6283	0.0121418
88.7595	0.0320734
88.792	0.0628605
88.8685	0.0325852
88.9662	0.00492803
89.0551	0.0262475
89.1191	0.0070057
89.1632	0.005539
89.3126	0.0265271
89.3517	0.00490751
89.4165	0.0822626
89.4503	0.0170552
89.6183	0.0541018
89.67	0.0696973
89.7829	0.0152577

File: MgMn4FeO8.xy
# 2-theta (degrees)	Intensity
17.5325	1.57532
17.7107	100.0
17.9257	33.5627
18.1825	5.92345
19.6217	2.32369
20.4318	2.43154
21.7738	12.9282
28.422	5.28903
28.5294	6.55092
29.2007	0.849228
29.4982	0.860476
29.7434	0.995459
30.5578	0.999663
33.0339	17.8386
33.2061	1.16496
33.3296	2.29784
33.6395	1.58246
33.9204	6.29242
33.9712	0.587019
34.5589	0.995038
34.7439	8.7344
35.4782	0.502147
35.4932	19.7069
35.7999	5.80661
35.8632	19.3775
36.136	11.2049
36.31	17.2083
36.4958	0.554039
36.8441	16.6996
39.8503	70.76
41.552	62.0125
44.3877	53.5793
44.4249	0.00996353
44.5462	0.620429
44.8269	3.48517
45.1135	0.497501
45.258	0.513224
45.2728	1.02899
45.455	0.704161
45.4897	1.59706
45.9544	2.27786
45.9569	1.07621
46.1792	0.406666
46.2338	1.98809
46.2389	0.28986
46.2765	0.263655
46.4181	0.250849
46.6649	1.50434
46.8397	4.57198
47.5397	0.167034
47.8624	2.13207
48.1059	1.17317
48.6075	0.23142
48.6264	0.348892
49.3156	0.385242
50.0247	0.500462
50.0694	0.103655
50.625	0.144282
50.6299	0.0392984
50.9771	0.363909
51.1886	0.379053
51.4437	0.0865195
52.1998	0.394061
52.6192	1.22172
52.6263	0.120167
52.6659	0.413543
52.7124	3.75254
52.9649	4.48635
53.2108	0.558947
53.2244	0.671398
53.8788	0.895009
54.4146	0.522337
54.5313	0.190202
54.5347	6.99346
54.6001	0.705034
55.0094	1.08642
55.2632	1.18154
55.4222	0.745679
55.7291	0.236194
56.5913	0.00382152
57.8297	0.0471838
58.2081	4.22422
58.5944	0.988078
58.8109	17.2672
58.9996	0.307024
59.0502	17.3166
60.5499	17.0644
61.1587	2.23429
61.2175	15.8805
61.3203	0.406091
61.3931	0.26899
61.486	0.11651
61.7693	15.4826
61.8057	0.269637
61.9905	1.76869
62.1836	2.20878
62.3438	4.10725
62.353	0.526134
62.8155	0.35593
62.8641	2.0895
62.8739	0.599757
63.1849	0.909869
63.237	0.273974
63.3139	0.38778
63.3817	0.0699907
63.3894	0.851487
63.6107	14.3738
63.7732	0.644119
64.0801	0.15722
64.2912	0.0577969
64.5941	0.370668
64.7111	0.0620589
65.0454	2.65156
65.1405	0.231339
65.149	0.198447
65.1875	0.110365
65.2942	0.765123
65.3726	3.30334
65.4301	0.247438
65.599	0.39488
65.6053	0.00479707
65.6189	0.107335
65.663	0.164556
65.7321	0.181769
66.103	0.189395
66.4241	0.278681
66.4819	0.0698317
66.8677	0.264156
66.9239	0.127301
67.4229	0.140171
67.614	0.190163
67.8254	1.72051
67.8478	0.250709
67.8932	0.125438
68.0136	0.401694
69.0286	0.382097
69.3049	3.62891
69.362	0.934354
69.6001	0.158599
69.7069	3.36019
69.9954	3.4849
70.2243	0.154436
70.3338	0.321131
70.4279	0.239789
70.7216	3.26001
70.7672	0.302772
71.3822	3.24759
71.5018	3.22719
71.6897	1.29757
72.0088	0.0932106
72.123	0.00539007
72.1322	0.0956419
72.2304	0.385093
72.892	2.61173
72.9719	0.130832
73.0516	0.2265
73.0612	2.14561
73.3317	2.58952
73.6736	0.126766
74.0807	1.15707
74.9575	1.25168
75.0019	0.220016
75.0874	2.56902
75.1233	7.46635
75.2386	0.179906
75.3482	0.310729
75.5777	0.169559
75.862	2.5291
76.0146	6.88666
76.589	0.00113762
76.603	1.96087
76.6749	2.04479
76.7965	0.062391
76.9409	0.779812
77.0971	6.91693
77.1121	0.0704196
77.5492	2.01674
77.6114	0.25702
78.1133	0.0380334
78.1542	0.102299
78.1776	0.377277
78.2173	0.057721
78.3999	6.50255
78.5311	0.0607661
78.7422	0.0448377
79.0327	0.171643
79.192	0.564449
79.352	0.781135
79.7459	0.111348
79.7667	0.0430957
79.8525	0.0341141
80.0406	2.03187
80.3316	0.0161758
80.3741	1.30474
80.832	0.0488473
81.0947	0.022689
81.1106	0.174631
81.3163	0.301755
81.6029	0.0571002
81.8319	0.029245
81.975	0.170695
82.215	0.0487143
82.2325	0.184117
82.2725	0.0452352
82.2982	0.251382
82.4024	0.581209
82.4726	0.0778036
82.6855	0.112214
82.7789	0.0716715
82.898	0.0707152
82.9959	0.27269
83.0252	0.263445
83.0539	0.25265
83.07	0.0881794
83.1446	0.217933
83.4083	0.126949
83.4545	0.277775
83.5901	0.312604
83.7452	0.0547341
83.8086	0.0206248
83.8784	0.134056
84.0012	0.0987881
84.0066	0.150528
84.2655	0.375604
84.4964	0.764856
84.563	0.631244
84.7283	0.634013
84.8548	0.0612414
84.8629	0.103258
84.9319	0.00608644
85.2102	0.0746373
85.2939	0.078369
85.42	0.672541
85.4373	0.296481
85.4981	0.14519
85.5482	0.11343
85.5537	1.39857
85.5931	0.374196
85.9351	4.42983
85.9945	0.0981946
86.0636	0.204699
86.067	0.123443
86.2027	1.59585
86.3475	0.0852709
86.359	0.0324586
86.7562	0.138632
86.8782	0.0164698
86.9001	0.153246
87.0134	0.156565
87.22	0.108573
88.0542	0.0497535
88.1358	0.0550056
88.3778	0.103543
88.4259	0.227785
89.0821	0.802031
89.2816	0.115903
89.3273	0.25577
89.4406	0.100855
89.4922	0.200052
89.6064	0.175709
89.6456	0.111419

File: MgMn4O6.xy
# 2-theta (degrees)	Intensity
17.276	2.2684
19.8095	40.568
19.8668	41.368
20.3249	36.1885
21.7989	7.39242
22.67	5.3814
22.6759	5.36694
29.6945	7.32467
29.7682	6.97402
31.0459	9.57031
33.444	100
33.475	91.9863
33.5185	97.0092
34.002	98.4919
34.9612	6.05265
35.4437	72.0203
35.4693	70.4202
37.0463	12.0957
37.1429	12.5178
37.8788	10.9459
37.9346	10.1138
38.6962	9.96637
38.7346	9.63921
38.9607	1.98568
39.4442	1.00422
39.5125	0.861254
40.2443	1.43933
40.3643	1.43964
41.327	1.62836
44.441	3.03316
45.065	0.0161409
45.1408	0.0654578
46.2938	2.36145
46.3064	2.16726
46.7219	0.19588
47.806	29.0603
47.9077	30.2844
48.3851	41.1711
48.5346	41.0964
49.136	28.8758
49.2266	28.3003
50.2594	0.355124
50.4844	23.8732
50.4933	23.865
50.6467	35.6711
51.9433	0.922868
51.9839	1.11234
52.2106	0.960985
52.3637	0.913378
52.4527	1.10279
52.5261	1.37282
52.8788	1.52346
52.9081	0.978729
52.9576	1.47865
53.0082	0.764599
53.561	6.64601
53.7697	1.12835
53.7781	1.03422
54.1378	1.43365
54.2448	1.34619
55.9348	0.103692
56.6705	1.18268
56.8562	1.01851
57.4816	1.56893
57.6116	2.01376
58.6754	0.634882
58.7048	0.710665
59.0908	0.76776
59.144	1.01243
59.1722	16.6023
59.2852	16.1121
59.7751	38.6552
59.8584	41.2902
59.9177	38.4018
61.1055	17.8607
61.1564	17.6116
61.6592	0.586017
61.6796	0.134089
61.8252	0.436144
62.0511	16.1659
62.1105	16.4071
62.1331	0.212644
62.3306	0.0981876
62.941	5.1465
63.0187	3.37736
63.0449	6.07752
63.0982	3.07161
63.3113	0.0790841
63.3918	0.0918592
63.9188	0.00467224
64.5965	4.08612
64.7103	3.21816
64.7216	0.313859
64.9065	4.46954
66.2933	3.53465
66.3046	4.39451
66.6768	0.1815
66.8831	0.203085
67.9451	0.0292603
68.1188	0.0107895
68.938	8.41866
69.1185	1.25557
70.0493	1.73088
70.2632	10.0343
70.2897	1.80699
70.3358	12.0514
70.4378	10.3175
70.511	0.0637168
70.5412	0.0606017
70.6345	0.243268
70.7555	0.23197
70.8546	10.0642
70.9066	10.1848
71.5745	2.94234
71.9249	0.9261
72.1338	0.805891
72.2623	1.8788
72.2838	1.77249
73.0229	0.337379
73.0946	0.371999
73.3262	1.47311
73.426	0.24946
73.5262	0.499435
73.5296	0.930879
73.6356	1.05315
73.8494	5.47625
74.0379	1.35556
74.0435	0.573766
74.1281	1.32148
74.166	0.875333
74.1724	0.182329
74.1788	0.608232
74.3617	0.751186
74.4215	0.275786
74.5525	0.355165
74.7136	0.296106
74.8527	0.280099
74.8715	0.399893
75.0046	2.12609
75.0661	2.16171
75.6375	0.203944
75.7247	0.193356
76.7764	0.489697
76.8984	0.559652
78.7506	5.23991
78.8476	0.250978
78.8662	0.304564
78.8957	5.72787
78.9346	4.95737
79.133	5.3982
79.4712	0.74782
79.49	6.54836
79.6105	0.561859
79.7861	6.42928
80.3588	4.50088
80.5858	4.20899
80.9531	4.08512
81.0919	4.15293
81.2484	1.58195
81.4748	1.46632
81.475	1.68079
81.4923	0.636831
81.6031	0.587621
82.5475	4.26223
82.8322	1.55417
82.9238	1.88406
82.9714	4.96027
82.9991	4.79888
83.0393	4.84066
83.0957	4.6771
83.1119	1.58615
83.1379	1.94707
83.3274	1.06556
83.4837	0.465004
83.5711	1.1183
83.6217	0.538554
83.6348	0.48314
83.6669	0.0576582
83.7234	0.617347
84.1355	0.852638
84.8954	0.0899146
85.0696	0.0849581
85.1955	0.00169676
85.3319	0.0147854
85.543	0.644332
85.5705	0.688402
85.8468	0.16615
85.958	1.49601
85.989	1.47316
86.3682	1.15502
86.3796	1.32552
86.5316	5.21845
86.6632	5.3251
86.9511	0.379518
87.2621	0.393103
87.4799	1.51673
88.3833	4.2632
88.7115	0.0548099
88.7619	0.0275752
89.7815	0.42108
89.8638	0.0218348
89.8946	0.120827
89.9493	0.0227917

File: MgMn4O8.xy
# 2-theta (degrees)	Intensity
16.9643	1.31222
17.911	100.0
17.9568	1.15887
18.3386	3.16329
20.75	0.651196
22.6494	0.147729
22.7274	0.172855
26.7263	2.96494
27.9576	1.83951
29.9614	0.0691365
29.9642	0.406
30.5833	0.69318
30.6708	0.767896
31.7916	0.616629
32.3796	0.550932
34.3153	13.4628
34.4999	0.326838
35.1982	9.17658
35.5902	0.670653
36.1771	4.80383
36.2795	4.51703
36.3747	10.0799
37.1692	3.91171
37.2039	0.801575
37.2738	4.03055
37.5952	0.665306
40.1162	0.122248
40.3234	0.0418621
40.6686	0.10098
41.6025	24.6642
42.0862	0.152808
42.2225	22.7562
42.8688	0.290254
44.0799	0.202108
44.1407	20.3771
45.6035	0.0400703
45.7869	0.032122
46.0237	0.0206192
46.2498	2.13019
46.4162	2.40968
46.6399	0.102571
46.8442	0.0834522
47.0137	0.104594
47.1863	2.74607
47.2526	0.027542
47.4671	0.0188867
48.1346	0.0846574
48.5348	0.00937954
49.1179	0.0283563
50.0289	0.0509502
50.4928	0.0192137
50.5272	0.43005
50.5381	0.650965
51.7626	0.592044
51.8061	0.138506
52.5274	0.327519
52.692	0.678663
52.8081	0.00527196
53.3005	0.0836104
53.4565	0.0271404
54.9918	0.120274
55.064	4.24787
55.1294	0.00703916
55.1341	0.859616
55.1507	0.582261
55.244	1.08069
55.4054	0.70278
55.4594	5.03678
55.6065	0.185142
55.6799	0.495481
55.8334	0.366101
56.2629	0.234015
57.1171	0.00325376
57.1237	1.05216
57.7705	0.494018
57.7795	3.90861
57.9898	0.496331
58.6094	0.538729
58.6348	0.150459
58.9794	0.014243
59.7574	0.0180124
60.0391	0.484978
60.6285	6.75968
60.9122	5.10493
60.9928	0.0154366
61.3059	0.0150124
61.3861	4.628
61.5188	0.0413401
61.5929	0.531746
62.2607	4.88941
62.267	6.31159
62.2963	0.0308446
62.8374	0.55921
62.9642	0.0142841
63.6296	0.31141
63.6686	2.81807
63.8675	1.87119
63.8897	0.222007
64.0592	5.96837
64.119	0.0420284
64.192	0.267246
64.393	0.0379071
64.7509	0.0766849
64.7713	2.07895
65.113	0.0196442
65.4091	0.144009
65.6737	0.00177959
65.8033	0.00140429
65.9495	2.20203
66.1203	0.0125184
66.3915	0.00933895
66.4294	2.34624
66.9646	0.0241518
67.1051	0.0269222
67.2089	0.0327988
67.3635	0.154656
67.7855	1.7025
67.8039	0.00893899
68.7373	0.0911744
68.7816	0.0312143
68.7861	0.00556129
69.9486	0.00547641
70.4303	0.132418
70.958	0.153776
71.0113	0.378433
71.6277	0.0778182
71.6542	0.983326
71.8611	0.19054
72.1871	0.563088
72.3147	0.877286
72.4432	0.00170527
72.4476	0.0360905
72.4713	0.421028
72.4796	0.113965
72.505	0.681023
72.559	0.975062
72.752	0.858273
72.9326	0.712895
72.9379	0.13799
73.0475	0.00279057
73.1311	0.757838
73.2181	0.115839
73.2989	0.136506
73.4564	0.178873
73.6415	0.108763
73.7094	0.106242
73.9486	1.32108
73.9665	0.115834
74.416	0.808863
74.5908	0.049646
74.6101	0.774384
75.0401	0.104412
75.2875	0.480737
75.3566	0.742829
75.4162	0.641161
75.4891	0.198866
75.506	0.954296
75.7244	0.142893
76.0853	0.70091
76.7745	2.59626
76.8427	0.156051
77.0229	1.45599
77.1865	0.55892
77.2019	0.00955085
77.2178	0.140923
77.2543	0.629324
77.6462	0.142823
78.3798	0.0824401
78.6627	0.0198748
78.6873	0.0255967
78.7029	0.666756
79.1978	2.65968
79.2832	1.28788
79.3036	0.0427306
79.4554	2.61177
79.6231	0.0425667
79.6449	0.162302
80.2135	0.114473
80.2492	1.25828
80.5059	0.0216733
80.508	0.0367988
80.5299	0.0116812
80.5683	0.385652
81.077	0.0226537
81.1207	1.09743
81.7932	0.200907
82.0146	0.00458162
82.4318	0.0851386
82.9949	0.00454187
83.0143	0.104173
83.1465	0.034497
83.3388	0.0411325
83.5434	0.0663967
83.6308	0.0853299
83.7083	0.0752637
83.9193	0.049952
84.1023	0.00865255
84.1774	0.0289019
84.3914	0.0805893
84.5291	0.00318911
84.6038	0.436849
84.8751	0.0208792
84.9062	0.00824203
85.2151	0.0151
85.3678	0.104607
85.7392	0.0131041
85.8425	0.00616644
85.8591	0.0175946
85.9487	0.0205742
86.0402	0.0356217
86.245	0.0846941
86.3066	0.107969
86.4694	0.0427259
86.602	0.0536496
86.6201	0.164729
86.7206	0.224102
86.8184	0.0367977
87.156	0.250422
87.3699	1.04981
87.6171	0.0467361
87.7943	0.137473
87.9237	0.188113
87.9626	0.0237294
87.9906	0.00201264
88.0536	0.157804
88.5012	0.0567949
88.6601	0.0701018
88.7078	0.0374448
88.8243	0.0660267
88.923	0.994084
89.3024	0.00432992
89.3491	0.00163737
89.3568	0.104116
89.4304	0.0177484
89.8389	0.0252167
89.8484	0.00823906
89.9193	0.772046
89.9352	0.162962
89.9447	0.00985135
89.9921	0.34342

File: MgMn4O9.xy
# 2-theta (degrees)	Intensity
14.756	0.101773
18.5328	84.0142
20.9267	8.13352
21.3063	10.2544
23.7714	26.9521
28.0935	14.4416
29.7641	19.0204
30.0384	100.0
33.3742	66.2544
35.292	4.20142
36.8958	1.23254
37.5739	14.3791
38.442	5.42782
39.0972	6.1917
40.5722	0.105901
42.5952	2.07893
42.7969	4.47025
43.3974	0.0717509
44.7557	36.9806
45.3179	0.00465573
46.8198	1.12532
47.9181	41.2894
48.1021	6.40285
48.651	0.905856
49.3592	0.335024
49.8977	6.44017
51.122	1.55151
51.8054	33.4368
54.6765	7.55672
55.1626	0.633026
57.5963	20.912
57.7728	0.965409
58.0809	0.464093
58.7086	6.42486
58.883	0.715672
59.1875	8.30876
59.9804	0.0813921
61.8159	1.32699
61.9709	2.05239
62.1398	0.562444
62.4347	4.55035
63.2033	20.4397
63.9391	5.2356
65.1371	3.42461
66.0245	3.79026
66.3371	1.89747
67.203	4.01923
67.3647	0.306037
67.6473	20.6644
68.3847	10.4409
68.6652	0.381698
69.238	2.89927
70.0997	9.75631
70.2451	0.414659
71.4034	2.43439
71.6787	3.63943
73.2303	8.32834
74.2146	0.33803
74.3696	0.00604405
74.6405	0.0424965
75.3484	3.37401
76.3229	0.0679289
76.5914	0.689772
78.1076	2.76456
78.2601	0.3735
78.5266	0.302981
79.4891	0.210541
79.8934	2.55634
80.1964	1.1474
81.1539	0.00293274
81.8075	0.260465
82.1089	0.0324697
82.3598	1.45264
82.8988	2.10477
83.0492	11.8918
83.3121	0.293709
84.0001	0.158618
84.0126	0.163752
84.7995	2.02634
84.9618	0.489469
85.7476	1.40014
86.8439	1.31983
87.1054	5.59078
87.5036	0.853438
87.8023	0.432632
88.7476	0.463585
89.68	0.360593
89.6925	8.6126

File: MgMn5O8.xy
# 2-theta (degrees)	Intensity
16.3877	42.7337
16.3954	18.3863
17.0325	78.8685
17.3407	18.7676
22.0224	92.039
22.8109	4.13326
23.6663	9.02146
24.2345	44.7808
25.7353	34.9101
25.8961	7.27016
28.2024	13.7997
29.3444	1.12728
29.3576	12.7325
31.6838	68.5992
31.7389	16.7347
33.1232	22.8988
33.139	20.7267
33.3619	41.0741
34.4566	36.3545
34.8445	19.0209
35.0875	23.7191
35.0953	37.9226
35.2106	26.9591
36.5055	5.49764
36.6762	34.3837
36.7449	10.9985
37.1992	17.0429
37.2575	100.0
38.0131	7.20504
38.5964	4.74752
39.33	0.965938
40.0201	69.0359
40.8081	0.617385
41.2244	3.73707
41.2931	2.43444
42.4118	0.751529
43.1359	1.0803
43.7819	7.10034
43.7912	2.60399
44.9154	4.21317
44.9316	1.65212
45.0905	2.6059
45.1891	5.86641
45.7438	6.4592
45.8705	5.01802
45.8855	0.715602
46.0878	0.0459291
46.5946	83.2684
46.674	2.60939
47.8095	2.38091
47.8686	1.61425
47.9926	2.95814
48.14	16.4649
48.4253	18.3372
48.7554	1.47166
49.2195	6.18367
49.5874	3.87836
49.6472	11.6542
50.0994	4.51741
50.6267	0.830798
50.6519	6.14823
50.9163	0.955133
51.0781	0.71155
51.4491	28.5742
52.0106	0.0570889
52.7532	0.419394
52.8978	9.8771
53.2128	1.25073
53.2483	32.7386
53.3691	4.56485
53.5145	11.2249
53.6226	2.34065
53.776	0.897778
53.8671	3.31061
54.1891	7.44737
54.3705	6.4445
54.5223	0.359829
54.9464	12.1892
56.1984	0.609114
56.312	3.92352
56.662	4.53279
57.0272	3.92615
57.45	1.48199
57.6372	1.43587
57.91	1.36763
58.231	2.36551
58.3227	21.3334
58.8281	2.65382
59.0841	0.885038
59.2711	0.510534
59.3404	6.89948
59.3538	0.56461
59.5275	31.6001
59.6166	0.166317
60.656	1.88042
60.6736	4.35622
60.6766	17.821
60.8722	6.81015
60.9018	17.7857
61.073	2.59248
61.177	1.7395
61.2216	13.1992
61.2413	0.904222
61.489	1.02486
61.7113	4.09398
62.3347	2.3853
62.3525	0.388785
62.6749	4.70611
62.6753	8.64585
62.7114	4.10053
62.9464	1.79213
63.2865	0.0854819
63.2929	2.02004
63.6503	1.12228
63.8726	5.61245
63.8865	2.13685
64.1984	9.19504
64.2707	7.41936
64.3321	1.84919
64.3489	0.622435
64.7324	14.3308
64.9961	2.06007
65.2456	5.61673
65.2863	0.0371191
65.385	2.32542
65.4043	12.4201
65.863	4.36849
65.9232	0.472769
66.1816	2.3478
66.3083	1.42251
66.5689	1.44611
66.7578	0.914761
66.8479	1.65758
66.8663	2.33535
67.0462	5.64415
67.5219	2.10421
67.7827	4.20761
68.0447	0.2161
68.6398	0.779748
68.7066	0.359735
69.0842	2.59284
69.0937	1.49804
69.1361	7.47914
69.5133	6.15606
69.5275	2.55509
69.5501	2.0772
69.5804	3.74421
69.6591	1.70925
69.868	0.285736
69.9196	0.0652388
70.0448	3.94354
70.0709	3.57799
70.2677	2.78395
71.4666	1.85447
71.7196	0.67642
71.8208	2.87291
72.6492	7.88778
72.712	1.43757
72.7764	0.142145
72.7893	2.89298
73.3338	0.440706
73.4639	1.06891
73.5712	7.0944
74.0137	0.0117134
74.1374	2.09533
74.1512	7.18902
74.1697	10.9101
74.4456	3.77071
74.5411	0.845147
74.8474	1.19614
74.8698	3.34134
75.3991	1.77874
75.691	1.60354
75.7022	3.18161
75.8142	0.954781
75.9309	1.02546
76.0345	1.03402
76.103	2.38728
76.4804	0.13801
76.8089	1.13697
76.9106	0.361668
77.0516	0.428072
77.1152	4.12564
77.4723	0.0498103
77.5729	0.844834
77.6091	0.388351
77.7559	1.69931
77.9733	3.98417
77.9892	2.87064
78.0617	2.42509
78.0628	2.17913
78.1572	2.38404
78.3864	0.265983
78.6716	0.846192
78.6978	0.394616
78.744	0.968187
78.8203	3.43614
79.1343	0.649456
79.2717	2.90251
79.342	0.978867
79.3666	2.91554
79.4153	2.60901
79.5557	0.402621
79.5884	0.233011
79.6415	0.696865
79.6473	0.228007
79.6766	0.117309
79.8428	0.898776
80.2561	0.260689
80.2915	0.578135
80.4501	4.8156
80.5987	0.53158
80.6172	0.936582
80.8153	0.553024
80.8481	0.695142
80.8792	0.223629
80.8899	0.909695
81.2523	0.452402
81.2872	7.30651
81.4344	0.358545
82.1102	0.12516
82.2548	0.632307
82.3235	0.833462
82.4276	0.491683
82.4821	0.268379
82.5343	0.654436
82.5481	2.18312
82.5579	0.471588
82.6406	0.137918
82.7477	1.00261
83.2404	1.99225
83.2773	0.370576
83.6654	0.815358
83.7992	0.220777
83.8154	0.713885
83.841	1.79185
84.003	0.0145738
84.3586	2.31344
84.4747	1.689
84.585	0.366917
84.6044	1.61627
84.6313	0.415363
84.6963	1.99889
84.8945	1.47452
84.9785	1.19286
85.0233	1.9595
85.2791	1.10234
85.2986	1.08006
85.3291	2.16494
85.4745	0.24281
85.6329	5.36193
85.7088	0.748398
86.2959	0.447685
86.3004	2.98188
86.3721	4.69101
86.3757	0.940383
86.5776	0.139468
86.7923	0.385712
87.1547	0.692782
87.2706	0.0808938
87.3797	0.785722
88.0383	0.275907
88.4178	2.19676
88.5493	0.392582
88.698	2.07178
88.7178	2.50209
88.7492	0.473808
88.878	0.315046
89.1099	1.39216
89.163	0.316617
89.3554	1.62794
89.5109	2.08474
89.6117	0.495416
89.692	1.4388
89.7434	0.168619
89.9641	0.432212

File: MgMn6O12.xy
# 2-theta (degrees)	Intensity
12.2381	0.450894
17.7159	0.755802
17.966	27.4389
18.5702	0.786912
18.9402	0.437318
21.1453	100.0
21.2624	0.94992
21.9093	0.25784
22.4277	51.5796
24.6185	7.83578
25.2357	0.849804
26.0604	0.231326
29.6982	43.9038
30.0222	0.267697
30.7878	0.00110545
30.9601	0.135568
31.234	1.79397
31.4179	1.55209
31.5164	1.51273
31.5663	46.6674
32.1927	1.53352
33.0114	1.70797
34.2996	1.09473
35.3395	0.176834
35.5832	1.54152
36.105	57.6438
36.2248	19.1094
36.3553	0.127801
36.3937	15.8187
36.6256	28.4521
37.2996	17.8735
37.3842	1.02377
37.6518	0.00288869
37.7639	0.857679
39.0481	1.00149
39.292	0.0179383
40.0567	33.0571
40.6083	0.695629
41.0371	0.192021
41.1536	4.7929
41.2623	0.908897
42.1129	0.199512
42.7554	10.4501
43.0571	3.10782
43.2307	0.890934
43.3047	0.00154555
44.1894	1.10294
45.777	0.879351
45.7774	4.53296
47.0415	0.0962754
47.2608	14.0182
47.8777	0.00436532
47.9928	0.598519
48.1693	0.136232
48.2354	0.0201695
48.3947	0.0168295
48.5092	0.852141
48.6989	0.102846
48.7362	0.161175
48.8603	5.98027
49.1414	0.529938
49.4533	0.0092391
49.5229	0.148418
49.6335	0.140535
49.7658	0.0761585
50.4757	0.476469
50.8136	0.660405
51.1776	0.259509
51.2916	47.7456
51.2917	17.3544
51.3574	0.246186
51.4865	0.0122108
51.9412	0.0996828
52.8246	0.736209
53.0987	31.747
53.2386	0.236733
53.324	0.0541796
53.6077	0.210141
53.8513	0.399849
54.2698	0.0102232
54.5008	1.63444
54.5019	0.0686478
54.8539	0.0643291
54.8641	19.5767
55.0267	0.627244
55.1778	0.735213
55.2059	0.628768
55.6394	0.552434
55.864	0.0627716
56.1721	0.626999
56.2979	0.4165
56.5717	1.98507
56.746	0.222742
56.875	18.4982
57.0272	0.498916
57.0474	0.184487
57.1279	4.15517
57.7322	0.0165914
57.8993	0.448294
58.2661	0.786495
58.4331	0.0636438
58.8423	17.7657
58.9102	0.227672
59.1548	0.50197
59.8843	0.0978134
59.9184	2.83104
60.3185	2.79434
60.3464	0.198858
60.5259	0.203269
60.8798	0.159067
61.1147	0.108263
61.6673	0.687473
61.8083	0.0745381
61.9763	0.440025
62.1899	0.272408
62.6153	0.079467
63.4653	0.139992
63.5549	4.49015
64.1335	17.4724
64.4129	0.672624
64.8908	0.157247
64.9812	0.208425
65.1164	6.83603
65.2929	0.243851
65.4434	0.320884
65.4981	1.29499
65.5719	0.00219625
65.9009	15.6074
65.912	0.757223
66.1785	3.35818
66.4465	0.0422768
66.4909	24.1953
66.7438	0.0600849
66.7954	1.65329
67.1832	0.362667
67.2	1.04312
67.2095	0.0991684
67.3472	0.00116692
67.3519	0.0550212
67.6813	0.00112962
67.7806	0.0320617
67.8109	0.0489925
68.0327	0.09153
68.3434	0.580011
68.3495	5.81335
68.3569	1.59995
68.4412	0.750634
68.4519	0.0642942
68.4786	0.140854
68.5424	0.0218075
68.755	4.78331
68.8606	3.33575
68.9448	0.563681
69.1098	0.337356
69.2368	0.692451
69.4877	1.35821
69.5137	0.185998
69.7952	0.606464
69.8	0.11337
69.8154	0.147678
69.9648	0.030367
70.2371	0.515995
70.2478	0.121442
70.6435	1.44946
70.7194	0.58961
71.3819	0.0549857
71.4526	0.0573721
71.5413	0.0374325
71.6134	0.0210343
71.8534	0.169654
71.9801	1.81213
72.06	0.0469076
72.204	0.33782
72.2464	5.43963
72.6136	0.0444839
72.8712	0.517406
73.2432	6.48975
73.8368	0.695251
73.944	0.0176501
74.1563	0.0926022
74.5445	0.168788
74.8063	0.0197104
74.8251	0.394134
75.1795	0.0543029
75.233	0.0904192
75.3014	0.0377561
75.6713	0.377206
75.6762	3.05454
75.697	0.215297
75.7257	0.122637
76.0405	4.18289
76.0407	3.50855
76.4367	0.048189
76.5997	4.54663
76.8903	0.0707749
77.2977	0.0467176
77.3005	3.10798
77.6592	1.17826
77.8657	0.0246718
77.8678	0.160009
78.0802	0.395479
78.1833	0.0529903
78.352	0.038665
78.3931	0.0546287
78.7288	0.0691228
78.7371	0.442128
79.1006	0.249755
79.3121	1.94813
79.3575	0.0644189
79.5189	1.84806
79.6011	0.840355
79.7674	0.00103899
80.1164	0.445935
80.1811	2.00642
80.3895	0.685356
80.4171	1.78374
80.6675	0.107742
80.9051	1.8777
81.1923	0.114378
81.5049	0.343775
81.5499	0.0382196
81.6205	1.42107
81.7314	0.152414
81.8084	0.101934
81.8912	0.0494808
81.9548	0.18773
82.1768	0.0967683
82.3152	1.1009
82.3355	0.0553577
82.9908	0.0600384
83.1469	0.21699
83.5128	0.0349845
83.7866	0.179221
83.8581	0.024014
84.1256	0.0461795
84.2452	0.00760186
84.2582	0.215148
84.3621	2.76499
84.5076	0.0587687
84.7089	0.0401122
84.9986	0.196229
85.0467	0.0570878
85.0899	0.24284
85.1248	0.0370267
85.3234	0.778287
85.5606	0.227142
85.7363	0.0477915
85.832	0.161388
85.8341	0.236932
86.2643	2.67965
86.2778	0.794629
86.3629	0.0895731
86.4451	0.150648
86.4665	6.5593
86.619	0.0561022
86.7744	0.222914
86.7845	0.0492191
86.8277	2.12301
86.9765	0.00101334
86.9794	3.30857
87.2297	0.250337
87.677	0.408734
87.7084	0.132155
87.8107	0.180482
87.8963	2.50582
87.9239	0.00655707
88.298	0.0827428
88.6381	0.135049
88.7227	0.910498
88.8399	0.0256355
89.0763	0.643362
89.2747	0.301378
89.3159	0.00382279
89.3242	7.93955
89.4574	0.0457932
89.5813	0.337361
89.6044	0.0265714
89.6587	0.0262752
89.8363	4.70548
89.9613	0.0476316