Folder: XRD_mixture/xy_files (part 2)

File: Mg10FeO11.xy
# 2-theta (degrees)	Intensity
13.9937	0.00145015
14.4873	6.44695
16.4148	0.00146311
18.0162	4.03546
20.243	2.9439
22.0808	0.00185294
23.3609	2.20849
24.5378	1.87989
25.3822	1.8013
26.5724	1.61801
27.6502	1.42814
29.1455	1.3559
29.5191	0.00135
30.0874	1.25068
33.0131	1.04224
33.7033	0.00319902
34.0439	0.00243633
34.2708	0.00116201
34.4494	0.0011988
34.7462	0.792967
35.16	0.986106
35.6837	0.00241742
36.0481	0.75915
36.0893	0.00146223
36.4258	11.7181
36.452	11.6982
36.909	0.686074
37.2756	0.766393
37.5935	0.00239587
38.8899	0.731323
39.1134	0.58115
39.2696	0.546598
39.4342	0.0021948
40.2911	0.00155929
40.8559	0.575451
41.0567	0.00100167
41.1548	0.566241
41.5512	0.53783
42.2594	100.0
42.3364	99.4364
42.486	0.50571
42.9412	0.45136
43.2027	0.488864
43.5085	0.00103548
43.7408	0.373052
44.3867	0.527663
44.498	0.44175
45.4548	0.418695
46.4287	0.0013103
46.7315	0.447926
46.8766	0.438298
47.3228	0.00119499
47.7705	0.332156
48.2186	0.318746
48.5617	0.184863
50.0359	0.316856
50.4235	0.184421
50.5028	0.166633
50.7664	0.293038
51.2049	0.00106723
51.6575	0.143741
52.1298	0.154098
52.4136	0.264174
52.6624	0.158691
53.0003	0.26998
53.1362	0.0010165
53.8245	0.179173
54.5249	0.253415
54.7194	0.00139702
55.074	0.115959
55.5674	0.13906
55.9943	0.253111
56.0408	0.132343
56.8156	0.135355
57.1429	0.228729
57.2192	0.146281
57.2742	0.135638
57.4111	0.128687
57.7084	0.125604
58.0047	0.146854
58.3866	0.124168
58.7945	0.129903
59.2708	0.109091
59.5265	0.00102188
59.63	0.0015651
60.2793	0.117663
60.4262	0.128471
60.6229	0.103164
60.9046	0.0937324
61.1712	0.00107155
61.3509	28.0952
61.3956	28.0388
61.4346	27.9766
61.5211	0.153666
61.5785	0.108403
61.9986	0.107631
62.3516	0.114864
63.0543	0.100662
63.4322	0.170053
63.5507	0.0951838
63.7375	0.119562
64.0115	0.149325
64.2418	0.00113992
64.5507	0.1292
65.0355	0.0885571
65.3876	0.0994906
65.9797	0.101474
66.4022	0.0916767
66.4501	0.0770224
66.8807	0.109894
67.8162	0.00101207
67.9805	0.0994
69.2567	0.0835581
69.4184	0.102265
69.5921	0.0860611
69.6594	0.0889104
70.1028	0.091694
70.3412	0.0439344
70.4048	0.0846467
70.491	0.0788555
70.9543	0.0932137
71.1552	0.0926345
72.1912	0.0370077
72.2908	0.0635165
72.4955	0.0879971
72.5514	0.0690393
72.8278	0.0414687
73.3251	0.0995941
73.416	2.32422
73.4604	2.32017
73.5354	2.30998
73.5578	0.0799686
73.5773	2.30966
73.5912	2.30428
73.6112	2.30462
73.7365	0.0717107
74.3246	0.0768636
74.7976	0.0772245
75.0246	0.0420017
75.1093	0.0735911
75.2312	0.0785261
75.5796	0.0494317
75.6633	0.0804269
76.0057	0.0763514
76.203	0.0676477
76.6915	0.0635573
77.0121	0.076406
77.3427	12.6933
77.3981	12.6676
77.5547	0.0644377
77.7683	0.0341619
78.1662	0.0544584
78.1808	0.0587691
78.5588	0.0662196
79.1315	0.0693269
79.2114	0.043678
79.4598	0.0667896
79.7052	0.0335623
80.2514	0.064796
80.6863	0.0710273
80.8124	0.0465329
80.8506	0.0604553
81.0373	0.0637475
81.1491	0.0887589
81.5937	0.0364551
82.161	0.0447749
82.1932	0.0514239
82.2625	0.040287
82.4601	0.0712119
82.7006	0.0638988
83.3248	0.0658386
83.4879	0.0616254
83.6212	0.0428399
83.8294	0.0533028
84.3357	0.0584571
84.4505	0.0404308
84.8276	0.0416185
85.1526	0.0661777
85.8246	0.0569208
86.092	0.0565024
86.1469	0.0650737
86.1867	0.0622611
86.2693	0.0416389
86.3357	0.0536809
86.3872	0.0376886
86.6479	0.0820231
86.9714	0.0782581
87.1144	0.0680488
87.1583	0.0379672
87.296	0.0699691
87.8853	0.0595951
88.1644	0.03791
88.5428	0.0576238
88.865	0.0525734
89.056	0.0448004
89.1223	0.0484456
89.3276	0.0583694
89.8474	0.0280217
89.9223	0.0671347

File: Mg14MnFeO16.xy
# 2-theta (degrees)	Intensity
10.3228	0.115275
14.6185	9.47883
20.7306	5.20207
20.7464	2.58192
23.2097	0.0303439
23.2238	0.0185604
25.4734	5.62711
29.482	2.14707
29.4934	4.26272
31.3149	0.00228279
31.3256	0.0118375
33.056	3.65376
36.3252	26.1063
37.8629	0.00297212
39.3493	4.05586
42.1816	100.0
42.2148	49.96
43.5449	0.00951657
43.553	0.0121938
43.5774	0.0080772
44.875	0.953794
44.9066	1.03699
47.4467	1.01237
47.4543	1.01137
47.477	1.02983
48.7007	0.00645666
48.723	0.00885674
49.9238	1.08532
52.3068	1.4657
52.328	0.746384
53.4628	0.0121738
54.6086	0.374041
54.636	1.48422
57.954	0.0104789
57.9606	0.00483444
59.0483	0.777751
61.1812	28.1931
61.2067	56.3941
62.2597	0.00613793
63.2776	0.329388
63.3026	0.580959
65.336	0.180087
65.3422	0.337021
65.3606	0.682229
65.3913	0.0862703
66.3524	0.00114512
66.4073	0.00102948
67.3671	0.584454
67.4154	0.291334
69.3566	0.296472
69.3625	0.292138
69.4103	0.284287
70.3444	0.00994196
70.3682	0.00951323
70.3978	0.00113431
71.3498	0.315063
73.2792	9.91011
73.3258	4.92104
74.2451	0.00181997
74.2625	0.00892255
75.2527	0.468086
77.134	25.5014
78.0607	0.00152574
78.0664	0.00214339
78.1121	0.00252403
79.007	0.321273
79.0298	0.329954
80.8908	0.183472
80.9134	0.186321
80.9417	0.177224
81.8514	0.0012366
81.8796	0.00121189
82.7704	0.523432
82.8154	0.200278
84.6365	0.325591
84.6533	0.33372
84.6814	0.317769
85.5673	0.00417879
85.5841	0.0108776
86.4914	0.276953
89.2757	0.00222614
89.326	0.00137459

File: Mg30MnFeO32.xy
# 2-theta (degrees)	Intensity
10.3492	0.020279
10.3755	3.05002
14.656	2.42531
14.6747	0.0401544
17.9899	3.26773
20.784	1.42477
20.8374	0.706526
23.2697	0.00198935
23.2817	2.00173
23.3176	0.00863045
25.5374	0.0065285
25.5703	1.57287
29.5589	0.587246
29.5973	1.16851
31.4059	0.949778
31.4331	0.00390252
31.4785	0.302221
33.1427	1.05124
33.1514	0.00176014
34.819	1.65222
34.8853	0.682905
36.4435	20.5974
37.954	0.0046507
38.0233	0.696112
39.4524	0.0129532
39.4747	1.08535
42.2943	100.0
42.4068	49.5913
43.6617	0.00155167
43.6685	0.337146
43.6891	0.00184864
43.7234	0.418829
43.7714	0.00188438
44.9956	0.297501
45.0024	0.00509127
45.0559	0.00107846
45.1028	0.26084
46.3058	0.435026
46.3582	0.742483
47.5751	0.276304
47.6008	0.275504
47.6778	0.275767
48.8318	0.475101
48.8507	0.00269768
50.0772	0.278127
50.1081	0.00189105
52.4671	0.400681
52.5388	0.199957
53.61	0.00144721
53.663	0.222568
53.757	0.0320958
54.7595	0.0806694
54.7653	0.00373469
54.8523	0.419983
54.9044	0.00604064
55.8987	0.206772
55.9444	0.243775
56.0359	0.124834
58.1382	0.00366013
58.1661	0.334692
58.2051	0.00313128
58.2553	0.101524
59.2293	0.23161
59.345	0.00237056
61.354	28.1447
61.4404	56.031
62.4162	0.100021
62.4964	0.00122467
62.5445	0.0930726
63.4577	0.0841164
63.5424	0.179242
63.59	0.00208915
64.5003	0.171087
64.5422	0.143508
64.6262	0.200549
65.5234	0.0494723
65.5443	0.0913988
65.6067	0.183107
65.7107	0.0240972
66.5487	0.0880633
67.5763	0.163733
67.6839	0.00428274
67.7402	0.0831837
69.5588	0.0809061
69.5791	0.0805813
69.7408	0.0793956
70.5505	0.0011244
70.5555	0.14871
70.5957	0.0856308
70.6308	0.00128955
70.676	0.051121
71.5411	0.00254901
71.616	0.0672517
71.6609	0.00467575
72.5607	0.127826
72.6402	0.0853693
73.5105	8.55456
73.6686	4.25328
74.4803	0.00328579
74.5048	0.0762099
74.5835	0.0909825
75.4308	0.00157474
75.6021	0.126458
77.4218	25.3339
78.3413	0.12201
78.5348	0.0197058
79.2481	0.0944217
79.3252	0.0834202
79.3686	0.00447173
80.2002	0.160929
80.3156	0.0620085
80.431	0.0513651
81.1401	0.0504544
81.2168	0.0505459
81.3127	0.0494232
82.0823	0.00128601
82.0871	0.0924288
82.3167	0.0669946
83.0272	0.00299973
83.0415	0.14084
83.1942	0.0515939
84.9162	0.0898941
84.9733	0.0900661
85.0684	0.0889161
85.9084	0.00135731
85.9511	0.0296924
86.0651	0.0517848
86.7665	0.092003
87.7044	0.130003
87.7424	0.138864
87.8182	0.0655201
87.932	0.101709
89.6072	0.0930021
89.683	0.030732

File: Mg(Fe2O3)4.xy
# 2-theta (degrees)	Intensity
11.743	4.23404
16.6156	0.802086
20.1275	2.85557
20.852	4.65959
23.294	14.8342
24.0252	7.65209
26.4236	41.8685
26.9713	5.49217
29.3903	19.2371
30.6688	28.6562
31.9586	21.995
33.5939	100.0
34.7225	82.8609
35.2464	1.45177
35.4575	14.4162
36.019	1.61739
36.6202	0.458964
36.9827	17.6954
37.5479	15.5778
38.7792	6.19275
39.2969	3.38413
39.6209	21.5476
40.09	20.4507
40.1415	0.546685
41.3066	0.233759
41.4883	6.89472
42.1644	17.6259
44.2916	4.40605
44.6716	0.705443
45.6303	0.083812
45.8011	13.9099
45.8487	0.601808
46.9929	0.674269
47.6836	0.650998
48.2663	4.20813
48.6813	3.23913
48.7807	0.792322
49.1965	26.0948
50.0239	0.513526
50.3595	30.7161
50.6357	6.30893
51.0916	31.4947
51.3762	0.0136556
51.7423	40.9753
51.9091	0.652598
52.0098	34.5243
52.5465	0.173287
53.2423	0.469247
53.3631	1.98069
53.9273	0.0824056
54.4007	0.33327
54.5579	0.455343
54.75	1.31535
54.8255	2.93189
55.3945	1.92722
55.7192	4.53928
56.0606	1.25331
56.3984	0.601822
56.5192	0.949185
57.385	11.5508
57.9405	6.25412
58.1536	0.856784
58.4309	1.20383
59.1764	3.12434
59.7753	1.98601
60.1698	0.381208
60.248	3.53723
60.5884	4.78277
60.8118	32.1577
61.0171	0.358192
61.3265	0.366881
61.6982	2.55958
62.6826	2.46815
62.9473	0.733526
63.0448	0.83006
63.3037	0.290738
63.4077	0.670592
63.7	2.85904
63.7683	0.501316
64.1269	0.272564
64.7255	1.36834
64.7314	0.641163
64.9718	3.10605
65.4902	5.45916
65.5721	0.667396
65.762	0.431198
66.121	4.99613
66.4775	0.774837
66.6011	0.00469517
67.0663	0.166233
67.4008	7.81365
67.6331	1.34216
68.0916	6.99264
68.269	1.24976
68.3537	1.12205
68.6398	0.422849
68.8228	0.149534
68.9208	2.25329
69.2839	0.426366
69.321	1.6912
70.4156	0.00961388
70.7054	0.505215
70.9813	4.24974
71.2871	4.52504
71.7474	0.860437
72.0251	0.233807
72.27	0.868961
72.4662	2.22443
72.7649	0.00230894
72.9268	0.794352
73.2329	9.90826
73.3818	0.676776
74.1505	1.75121
74.2202	0.249303
74.3383	0.258218
74.5505	4.09355
74.6668	0.171881
74.8282	3.8607
74.9082	0.0806064
75.0766	0.666616
75.3523	3.26883
75.4717	0.102294
75.763	0.348928
75.9185	1.41257
76.1014	0.0179129
76.3915	0.0472906
76.4531	0.0452342
76.648	1.68682
76.7862	0.43935
77.0836	0.170559
77.2549	0.0754236
77.524	1.2061
77.6163	0.766615
77.7702	3.05539
77.8239	0.0757167
78.0365	0.0076459
78.1079	2.8778
78.3449	0.235357
78.6913	0.114692
78.7381	0.219919
78.7425	3.57698
79.1337	3.12332
79.5333	0.44499
80.1321	3.41699
80.3182	0.0649368
80.6235	0.00183982
80.6613	0.174882
81.4387	0.832421
81.6786	1.46815
82.0926	1.25075
82.2958	1.33681
82.5288	0.0711565
82.8092	1.17228
83.1602	1.28583
83.3309	0.615366
84.086	1.48156
84.3254	4.19262
84.4782	0.617674
84.759	1.40712
84.8904	0.46219
85.1657	1.02044
85.3469	6.83576
85.3995	0.153691
85.4167	0.244205
85.4858	0.17682
85.5845	0.0164097
85.5984	0.846615
85.6597	1.21044
86.1394	0.163033
86.3171	2.39371
86.5525	2.06849
86.6657	1.84915
86.7294	0.0656557
87.1834	0.304881
87.4767	2.2613
87.738	0.00253318
88.2518	0.825904
88.3943	0.202465
88.6446	0.256921
88.7906	0.111469
88.9598	0.567535
89.1417	0.199038
89.5208	0.386483
89.6229	0.165832
89.9364	0.66342
89.9847	0.596218

File: Mg(FeO2)2.xy
# 2-theta (degrees)	Intensity
17.9851	53.106
17.987	17.7534
20.7979	23.8168
29.5776	51.4826
29.58	10.1317
34.8326	47.8467
34.8346	91.8131
34.8357	100.0
36.4334	3.88106
36.4374	13.6315
42.3235	75.6219
46.3285	1.61116
46.3309	4.65539
46.3334	2.42327
47.6068	4.9324
47.6101	2.32977
52.4766	1.82129
52.4812	17.3909
52.4827	1.80411
55.9282	6.11862
55.931	28.2999
55.9332	31.0647
55.9347	22.5469
61.3961	59.777
61.4015	60.6388
64.5388	0.451108
64.5415	1.6344
64.5448	7.51677
64.5455	0.81031
65.5668	0.44339
65.572	1.83407
65.5747	1.68675
69.6094	1.24561
69.6132	6.69024
72.5653	4.19276
72.5728	9.80218
72.5747	9.86376
73.5428	3.58601
73.5478	4.53612
73.5503	2.73938
77.3972	2.79152
77.4071	8.35771
80.2537	3.52785
80.2568	0.461825
80.2592	0.571168
80.261	0.852346
80.2628	0.815626
81.2011	1.04874
81.2084	1.45662
84.9596	3.81617
84.9657	0.951558
84.9693	4.40314
84.9705	0.965246
87.764	3.83413
87.7676	3.61889
87.7706	9.77204
87.773	6.68459
87.7748	4.38102
87.776	10.964

File: Mg(FeO2)4.xy
# 2-theta (degrees)	Intensity
17.9575	100.0
18.4575	5.37057
21.2005	2.05619
29.8458	0.674786
30.4677	0.905577
35.0498	0.438912
35.5902	0.92832
35.8578	32.394
36.3761	5.73422
37.4169	12.9828
43.1737	67.8419
46.469	0.110742
47.112	9.02793
47.7483	0.139128
48.1598	0.501577
48.9931	0.494581
52.587	0.178186
53.758	0.410945
54.1444	0.149303
55.8357	1.13356
56.5876	14.9916
57.1472	0.607157
57.5184	0.339108
62.0001	17.4861
63.4064	18.5122
64.9454	0.230181
65.6256	0.149353
65.6332	0.255909
66.4878	13.0216
66.6581	0.245953
66.9904	0.202317
67.6676	0.120088
70.6471	0.0571654
71.6376	0.126834
72.6007	0.0631289
74.0611	3.21497
74.5551	0.101564
75.0407	3.19342
75.3567	4.85659
76.0016	2.07986
77.2578	2.35596
79.8084	8.25024
80.7383	5.40028
81.5288	0.120998
82.1531	0.0629992
82.1601	0.0398085
82.6329	1.70374
83.1052	0.258943
84.0414	0.064324
85.2689	0.0496829
86.8348	0.0851479
87.7524	0.0491708
87.7732	0.0358495
88.0858	0.0798615
88.6902	0.0288805
89.4714	2.01062

File: Mg(FeO2)8.xy
# 2-theta (degrees)	Intensity
8.27106	0.0668551
11.7046	100.0
16.5856	48.7213
18.5163	0.4909
18.6823	1.55285
23.5337	6.70804
24.9892	0.125833
26.3038	5.0517
26.5323	25.9144
30.0853	1.79417
30.2768	0.151628
30.5259	0.186311
31.4631	0.407686
32.6115	0.00194509
33.8983	6.30992
34.7114	1.62223
34.8042	0.167567
35.0447	0.402382
35.7246	31.4285
35.8152	15.9195
36.0309	10.4318
37.7891	3.69799
38.1333	0.228444
38.8695	0.978757
39.8262	7.6784
40.6528	0.481185
40.8086	3.8171
42.2716	1.5319
42.6761	0.0974714
42.8072	0.683472
43.2074	0.908555
43.3001	0.0215528
43.5167	7.86934
43.7085	0.0151949
45.799	0.0408139
45.9629	0.452898
46.3299	0.390725
46.7148	23.4991
46.9761	17.3654
47.7552	0.318903
48.7069	0.325114
49.1659	0.118817
49.4452	1.26901
49.8889	0.968643
50.406	0.458853
51.8614	11.2096
52.1541	0.0955119
52.7151	0.346954
52.8744	1.06981
53.2162	0.594614
53.3272	0.0527754
53.7161	0.421268
54.0935	0.622245
54.5294	0.311747
54.9275	0.0020739
55.0671	0.00233301
55.71	7.93367
56.0298	20.4913
56.3509	10.1973
57.9336	2.0232
58.432	0.871984
59.2415	1.32256
59.7024	1.30448
60.6377	0.20236
61.2281	0.631353
61.3042	0.126761
61.3496	1.78612
61.5012	0.0828838
61.9216	1.18797
62.0558	0.259534
62.5405	0.0110917
62.9737	12.5529
63.2541	0.680609
63.5383	0.221424
63.6549	0.0256162
63.8264	0.0203427
64.1009	1.37434
64.2386	0.69281
64.3328	1.74735
64.724	7.50336
65.6753	2.83861
66.315	0.0699251
66.4486	1.92281
67.0018	0.0275042
67.0839	0.00400134
67.6043	0.467305
68.3228	0.667568
68.6257	0.276776
68.9741	0.0292297
69.3266	1.1256
69.4759	0.24521
69.5688	2.72247
69.8228	0.611485
69.9363	0.0335355
70.4695	0.0354917
70.597	0.827726
70.9237	0.355227
71.2259	0.0691281
71.33	1.0331
71.3668	0.745408
71.524	0.406726
71.659	0.809135
71.7216	0.324251
71.989	3.53311
72.0692	0.0404568
72.2604	2.43717
72.8118	0.00826899
73.2631	2.62083
73.6081	0.336401
73.9528	0.300436
74.049	0.0390265
74.4989	3.55383
74.746	2.8073
75.317	0.349448
75.6803	0.531878
75.8417	0.0107197
75.8988	0.508756
76.4202	2.42223
76.536	0.872026
76.6736	2.17953
76.8493	0.452805
77.4866	0.00462961
77.6313	0.200059
78.5853	0.01946
78.7924	0.423732
79.0223	1.25026
79.0978	1.8124
79.1613	0.225767
79.345	0.271576
79.4491	0.523292
79.6551	1.91041
79.7896	0.00237815
80.1116	0.15943
80.202	2.83711
80.939	0.0419516
81.1307	0.0992442
81.3985	0.0984608
81.4345	0.0225715
81.616	0.364451
81.6753	1.14894
82.0438	0.209464
82.7013	0.0323828
83.157	0.402105
83.3947	0.0218053
83.4362	0.179469
83.809	0.233769
84.3373	0.467596
84.4475	0.129463
84.5307	0.477129
84.6201	0.0178122
84.7724	0.0805002
85.3961	0.00171218
85.5282	0.236277
85.8732	4.3414
86.0944	1.55705
86.3909	0.0802602
86.5894	0.0134839
87.0109	0.968882
87.6945	1.56663
87.9754	0.0134883
88.1014	0.00956569
88.4519	0.00275615
88.7918	0.0790881
88.867	0.0308872
89.2815	0.325134
89.5197	0.0421667
89.8211	0.00433168

File: MgFe2O3.xy
# 2-theta (degrees)	Intensity
13.7439	39.9592
27.6906	1.54278
30.8098	10.9158
36.7161	76.2721
42.0716	50.6288
42.9405	100.0
45.2972	7.47563
46.6008	14.8916
51.8639	0.864731
57.1883	1.81062
58.9836	0.111265
61.6817	55.5655
62.3465	28.2344
64.1835	2.35528
69.5376	0.299703
71.1558	1.55007
73.368	9.17135
73.4897	0.0300114
74.101	3.16633
74.5896	20.2711
78.0867	25.2287
81.3035	4.78818
89.0689	0.0712558
89.656	1.94885

File: MgFe2O5.xy
# 2-theta (degrees)	Intensity
18.9862	10.0523
19.6406	100.0
21.8292	0.0565902
26.6132	45.424
26.937	41.598
30.4808	33.87
32.2831	0.156019
33.5904	68.749
34.7465	26.3947
35.9097	47.9859
36.4042	29.1655
37.3264	0.379252
38.0204	0.210838
38.5202	16.1332
38.7254	5.07034
39.8581	17.3617
39.8898	0.820972
39.9397	14.6044
42.07	14.762
44.2967	11.798
44.368	0.105629
44.5052	16.2538
44.6587	0.273242
48.3528	0.0259235
49.1761	0.345418
49.5126	1.3014
50.2756	0.0171873
50.9912	0.191083
51.28	5.10924
52.0188	27.3005
52.4486	0.100577
52.6502	0.00125489
52.838	15.9296
52.9986	42.4975
54.1841	3.43772
54.3172	0.565259
54.816	8.00209
55.0594	14.929
55.1339	0.358971
55.1465	0.0161253
55.2581	1.33972
55.5268	0.746753
55.6124	39.2454
55.9445	2.05967
56.9253	0.0035316
58.2828	0.0750071
58.3927	0.105443
58.5835	0.154028
59.3112	1.0428
59.6578	4.22005
60.7394	0.660291
61.4483	0.131798
61.5509	15.6163
62.2142	7.51865
63.044	32.7005
63.1851	0.0951402
63.1991	0.137757
63.3709	7.73965
63.436	3.9407
65.286	11.6976
65.7325	0.0980656
66.5539	7.14928
66.5643	4.30873
66.7709	13.276
67.1884	2.4373
67.3134	0.0315046
67.4584	0.0396604
67.5624	0.487231
67.6779	4.00913
68.5742	0.0365242
68.621	15.4468
69.2268	0.0697636
69.3139	1.87288
69.8511	0.105912
70.6063	0.608025
70.9116	1.10509
71.1647	0.0737882
72.0669	0.00365111
72.7165	0.04842
72.9837	0.280791
73.2027	2.06408
73.3379	4.0908
73.593	0.00174018
73.8993	1.37278
75.0031	0.968164
75.3065	0.151582
76.127	2.70971
76.4237	0.0266154
76.566	0.300518
76.599	0.991689
76.6421	1.10589
76.8096	4.21372
76.8333	0.15406
77.3261	7.39753
77.5936	0.088654
77.5951	0.0228848
77.6874	0.858475
77.8709	1.08853
77.9859	3.52189
78.3944	0.110893
79.4813	0.00819286
79.5849	4.2239
79.6355	0.0244503
79.7332	1.90923
80.1104	0.0419701
80.3599	0.015496
80.822	0.773787
81.3054	0.5448
81.5105	1.31309
81.9528	0.216554
82.5561	2.74783
83.032	0.109565
83.0725	3.5221
83.5216	1.96225
83.7117	3.38866
84.5783	0.00711999
84.5916	0.0124038
85.3797	0.173026
85.7264	0.575834
85.887	0.012467
85.9551	2.72222
86.0368	1.75389
86.1652	7.03284
86.212	0.0987222
86.629	0.00605872
86.9783	1.32081
87.0888	3.22639
87.2291	0.00293927
87.3371	0.0158135
88.369	0.0241176
88.6252	0.0567792
88.6508	0.92256
88.672	1.69605
89.5038	0.0273195
89.5474	4.3904
89.9118	2.66551

File: MgFe4O9.xy
# 2-theta (degrees)	Intensity
15.2047	0.314234
16.859	76.4781
20.0291	6.6901
21.5667	4.31961
22.7773	16.6381
27.4999	7.8942
29.5984	100.0
30.6856	13.3973
34.0974	4.4123
34.414	44.5493
35.2142	1.68083
35.8471	3.70041
36.9177	0.643143
37.5257	0.0634728
38.5562	5.3431
40.7052	0.283629
42.2197	39.1836
43.1564	4.99476
43.9488	1.10694
46.5228	1.20504
46.7679	0.0288959
47.3917	0.185841
47.8894	5.76861
48.7398	5.4908
49.2272	4.87405
49.4621	24.1083
52.1793	2.26319
52.6291	26.5715
53.0904	7.30883
53.4382	1.71427
54.6769	0.48694
56.7669	0.00250098
56.9797	0.353541
57.0995	1.98602
57.9578	7.73425
58.286	10.5761
58.704	18.6742
59.1334	0.396297
59.8704	3.73649
61.4428	0.13499
61.7596	4.00336
62.8919	1.03062
63.2916	1.47967
63.9011	0.843164
64.013	12.2449
66.1141	2.97989
66.6128	1.79138
67.0129	18.4452
67.3153	2.48024
68.0979	0.215678
68.2898	2.06023
68.7807	2.59632
70.5397	0.0459651
70.9173	2.27623
71.306	3.31678
71.5999	4.0775
71.7996	1.61622
71.9751	0.517587
72.5483	7.00589
72.6536	0.294642
72.8521	1.188
73.8987	0.134461
74.4543	0.029027
74.7433	0.87844
75.1124	4.75198
75.9758	0.619279
76.1476	0.396061
76.5261	0.0666333
77.0071	0.00704871
78.5801	0.0468259
79.8846	4.08928
80.0771	0.99059
80.2464	2.462
80.9017	0.583657
81.0937	0.00663869
82.1074	7.38947
82.6467	0.152393
82.8263	1.83861
83.6567	0.103732
83.937	0.913373
84.2953	0.00170337
84.8437	0.106144
85.1349	0.0179482
85.3023	1.49294
86.9554	1.08834
87.3122	1.53916
87.6803	4.37717
88.3157	0.98963
88.9624	1.55749
89.152	0.285735

File: MgFeO2.xy
# 2-theta (degrees)	Intensity
10.5526	3.79832
14.6454	100.0
21.1959	22.2554
23.2918	0.238489
24.276	36.5209
29.5371	68.4107
30.9612	1.0479
31.0614	0.00551954
32.0283	66.8184
33.3141	36.8985
34.3831	2.15778
34.4909	0.0425716
34.5333	25.4957
34.7043	48.8049
34.7608	18.8404
37.5196	49.5795
37.9137	0.0851092
38.2371	1.64875
39.8116	2.73726
40.6451	0.679021
40.9202	0.599872
41.0215	3.15056
41.2823	2.99766
43.1641	0.0333797
43.3783	16.3222
43.4794	4.24789
44.0268	0.473514
44.4599	0.478575
44.5161	1.18963
44.9614	0.553053
45.6373	0.209975
47.6225	0.197302
48.4336	5.72435
48.8153	9.13232
49.2626	7.95922
49.2725	1.92914
49.701	3.75351
49.745	5.7052
50.0938	1.28604
50.9576	0.427321
51.3053	0.756079
52.4592	7.66998
52.7018	0.647722
53.7288	0.178865
55.352	0.0043853
55.4808	0.211535
55.6725	6.92734
56.0137	1.44541
56.5497	3.8282
57.2022	2.24978
57.7246	1.01815
57.8654	26.4622
58.3725	6.07989
58.8743	4.0448
59.0063	18.1904
59.1004	16.2204
59.5484	0.799858
60.3584	2.35837
60.7085	1.17048
61.1657	0.119213
61.689	0.132158
62.0404	1.49196
62.213	0.0335905
62.4085	1.84982
63.5175	0.294793
63.5401	3.29905
64.1478	2.18579
64.4508	0.314561
64.5492	0.0786501
64.6617	8.36343
64.7569	1.2557
66.5931	0.573136
66.7082	1.65524
66.7923	0.393055
66.8098	23.917
66.9781	0.263884
67.1043	1.42629
67.4828	1.67152
67.643	4.96898
67.8621	1.66048
68.0147	0.0468439
68.1161	0.0164009
68.6882	2.85103
69.3436	0.0885197
69.6971	1.32573
69.9574	0.0138041
69.9601	0.369729
70.2979	0.207728
70.4359	6.62747
70.4685	0.0273621
70.5607	1.0061
70.6496	0.144517
70.733	0.179807
71.2858	0.290837
71.4533	0.0565267
71.7602	0.373304
72.1116	0.00513522
72.4751	0.620942
72.6011	0.73484
72.7748	1.10034
73.1086	0.271843
73.1949	2.36474
73.3615	3.34546
73.403	1.20312
73.6007	0.0546663
73.7723	0.137615
74.4533	1.3823
74.8108	0.0685642
74.9529	4.74574
75.2853	4.52266
75.5107	0.0588786
76.4966	0.530248
76.7538	4.27562
77.0476	0.509719
77.6615	0.0353388
77.9229	0.228866
78.2186	1.4075
78.8459	0.183428
79.1796	0.28544
79.285	0.881288
79.6578	1.92686
79.827	1.49327
79.9956	0.0225172
80.1471	2.17612
80.2753	1.30668
80.4392	0.7764
80.6001	0.604633
81.0397	0.026103
81.2684	0.892757
81.5005	0.00150441
81.7492	0.0105709
81.8465	0.865843
81.9869	0.0413058
82.1072	0.428692
82.1894	0.906409
82.2649	0.0667371
82.4535	0.490375
82.7032	1.74449
82.8203	0.771291
82.948	0.0639416
83.5123	0.348273
83.6391	0.938383
83.8691	3.78312
83.8956	7.41599
84.0865	0.371754
84.246	0.0168997
84.6562	0.559512
85.4825	0.0270294
85.7956	0.0306601
86.0399	0.358816
86.5562	0.0481669
86.7589	0.00901488
86.8448	0.0607152
87.0273	2.41348
87.432	2.9501
87.4923	0.0546876
87.8828	1.81774
87.9923	0.9368
88.2772	0.112194
88.7492	2.55543
88.977	0.769267
89.1102	0.165386
89.2781	0.00431594
89.4069	0.00971673
89.6636	0.0379019
89.9042	0.358983

File: MgFeO3.xy
# 2-theta (degrees)	Intensity
13.727	60.0158
18.2502	100.0
20.6013	3.87998
21.5489	4.68803
21.5558	11.876
26.5305	6.22813
27.6561	17.3207
29.4443	52.6992
32.3881	39.3173
32.3976	64.8068
32.4841	1.36703
33.4279	52.4127
33.948	14.0305
33.9615	6.96137
36.2871	0.327251
36.2957	5.49874
36.6585	77.0025
36.6628	3.3138
36.985	2.21531
38.3379	0.00900335
38.3542	40.2279
39.5894	0.0610672
41.909	1.83249
42.0178	0.00569371
42.7059	1.53119
43.911	2.61887
43.9256	4.09518
45.1264	12.6666
45.1477	14.4441
45.3437	0.413014
45.4406	49.0031
45.4512	5.29307
46.06	5.72193
46.086	8.44504
46.1	1.74256
47.2996	1.85838
47.3065	0.527509
47.9617	0.208872
49.2625	4.04002
49.2692	0.834051
50.6876	7.09167
50.7137	23.1621
51.0692	0.00368805
51.0854	0.17027
53.1797	0.0320746
53.1891	3.35348
54.0027	3.44977
54.6348	1.21605
54.7146	0.0032097
54.7332	0.0183393
55.2776	1.63436
55.3022	1.59121
55.6771	0.484833
56.8191	6.18858
56.8786	1.05515
56.8816	0.470145
57.1119	0.52889
57.1985	1.44767
58.0909	2.38752
58.1028	1.75493
59.0903	4.78684
59.108	14.2
59.7067	0.00460951
59.7359	0.412086
59.8853	1.53486
59.897	0.0129334
59.9679	25.8317
59.9825	42.7489
60.077	1.72888
60.1032	2.52706
60.8469	17.0957
61.0965	0.146869
61.8741	37.9612
61.8826	12.3151
63.5219	0.664481
63.5304	0.210383
63.7612	1.64552
63.7781	1.70961
64.8832	14.4309
65.0156	2.54512
65.0212	3.41598
67.4735	2.10236
67.5345	15.187
67.5672	1.46227
67.8053	0.590969
67.8271	0.0438173
67.8811	0.42338
67.9083	0.329353
68.0274	3.68991
68.1603	0.199205
68.2264	1.75557
68.2509	0.570976
68.419	1.36779
68.7208	4.72196
68.7533	0.389102
70.2255	2.01498
70.5633	0.0246819
70.9365	0.921925
70.9552	2.04965
71.2248	9.79215
71.2257	0.582914
71.2408	5.65957
71.2417	1.72588
71.4471	0.257972
71.4791	0.544692
71.9502	0.0608251
71.9608	1.0348
72.6768	0.0206553
72.7164	0.16825
73.0528	0.0641917
73.2502	3.63115
73.2713	0.201996
73.3851	0.704815
74.0755	0.288586
74.9866	6.57354
75.5066	0.026069
75.5223	0.506247
75.8364	0.386131
75.8494	0.445612
76.1182	0.0238823
77.0415	0.854683
77.0622	0.282349
77.0995	0.872887
77.5482	0.391015
77.556	0.520882
77.9118	2.83279
77.9428	0.496485
77.9461	0.145662
77.9564	5.49721
78.2256	0.177873
78.3049	1.54298
78.3409	1.55147
78.538	0.271502
78.556	4.24339
78.7453	2.55906
79.5142	0.110078
79.5168	0.218475
79.5245	0.705104
79.527	0.0568043
80.1501	0.169422
80.1808	0.127837
80.2201	2.01699
80.2584	4.97126
80.6349	0.128742
80.6375	0.0811978
82.0989	3.79226
82.1396	6.23487
82.4597	0.602211
82.7422	0.191397
82.7727	0.243213
83.0654	0.139116
83.0908	0.759657
83.3879	0.0650255
83.4108	0.224639
83.5961	0.10847
83.6418	0.593227
84.0619	0.00738456
84.8339	3.54731
84.8541	4.88508
85.2663	0.00749351
85.3241	0.0205066
85.3544	0.0959367
85.7099	0.00555504
85.7453	0.00495648
85.7841	0.411191
85.8245	0.010863
86.4359	0.285756
86.4435	0.37163
86.6742	2.152
86.6944	5.97134
87.0038	0.52844
87.7831	0.213746
87.7882	0.014467
88.1433	0.365432
88.1635	0.53772
88.2749	0.983413
88.3153	0.187749
89.5195	0.135572
89.57	0.113207
89.8797	0.100939
89.8948	0.0832798