Folder: XRD_mixture/xy_files

Note: README.md
# XRD xy pattern generate and convolve

File: Fe2O3.xy
# 2-theta (degrees)	Intensity
21.017	1.48946
22.8783	0.0185202
24.4577	0.686925
27.0512	7.4119
33.7365	100
34.0543	17.9774
35.653	16.1745
36.0172	0.966237
38.5883	0.0602433
39.0915	3.63467
39.674	1.67483
40.3608	0.572809
41.4077	6.02223
41.4234	0.0271338
42.7861	0.0231938
42.8391	7.15789
45.3333	3.22487
46.2889	0.471093
46.7383	13.4177
49.3447	3.93387
50.1284	17.6312
51.5814	6.82718
52.7965	0.791209
53.4446	0.482639
53.652	0.835576
55.4391	2.38166
55.7779	1.62687
56.0411	0.332074
56.7964	7.85124
57.6295	0.0703549
58.9541	1.09816
59.0801	11.5074
60.1392	11.173
60.7504	12.0629
62.1616	0.774032
62.35	1.32534
62.5179	0.113953
62.8241	22.0157
62.9337	0.0862058
64.7414	0.0588665
65.2539	0.463174
65.9811	0.00493279
65.9978	0.393526
66.3428	0.486435
67.028	3.72742
67.2255	0.384761
68.9986	0.0911695
70.3156	0.15843
70.8462	0.295635
70.9495	7.99703
71.6977	0.611739
72.8806	1.53725
73.0225	0.316317
73.1433	0.0688913
73.8579	0.80871
74.504	0.682608
75.3677	0.788509
75.5078	1.70338
75.5401	0.507757
75.6701	0.0126205
76.387	1.44657
76.7164	0.104769
77.2485	0.0181884
78.0314	0.538184
78.3306	8.52454
78.9067	0.0699003
79.1345	0.0196699
79.1809	0.230825
80.0528	0.712426
80.1202	0.0960331
81.4078	1.57851
82.124	0.164458
82.6051	0.0101532
82.7273	1.20588
83.0788	0.212488
83.4691	2.70602
83.5673	0.00171324
83.8619	1.59191
83.9983	0.145108
84.7153	0.189623
84.8266	0.02617
85.0322	0.0919835
85.4829	2.31387
85.6635	2.13025
85.7766	0.00127058
86.4634	0.137378
86.6125	1.01021
87.253	1.66373
87.4941	0.3926
88.2594	0.558165
89.1173	0.987815
89.9949	0.444686

File: Fe3O4.xy
# 2-theta (degrees)	Intensity
17.3766	0.024014
18.101	42.5271
18.1393	42.4261
21.7214	19.0772
23.2551	0.0195794
27.0546	0.0526041
29.2342	7.69234
29.8952	8.59203
31.198	0.0263128
32.0097	0.0117446
35.1698	9.00282
35.1904	8.49454
36.0302	5.00977
36.0908	5.58046
36.6746	18.1935
36.7542	18.2831
37.2565	33.0779
38.3944	0.00561512
40.2341	0.122693
42.1715	0.0199803
42.3052	100.0
43.332	0.109449
44.2765	44.2382
45.8947	1.21387
45.9444	1.06539
46.509	0.0471694
47.2984	0.0108518
47.4957	2.66613
47.5441	2.46534
48.0116	4.56119
48.0756	4.70006
48.8963	0.0924
49.2595	0.0398004
51.3581	0.0860646
53.1628	0.0202454
53.8827	1.35645
53.8955	0.0683428
54.0005	1.2601
54.344	2.93805
54.4202	0.0400082
55.1069	0.115557
55.7422	4.88963
55.7853	4.73564
56.3174	0.395188
56.446	0.406314
56.677	0.0539576
57.502	0.069084
57.6612	0.0323723
58.3389	1.76273
58.4088	1.8769
58.8265	0.0362463
60.1791	0.00212314
60.6251	13.5035
61.6396	0.0310102
62.1113	13.8494
62.302	0.0432254
62.531	0.00137046
62.8463	25.8396
62.9532	25.377
65.0688	2.22374
65.07	0.00382848
65.1434	1.0751
65.1868	2.41476
65.2483	1.12129
65.2749	2.00472
65.288	2.00919
65.6658	0.0222026
65.8314	0.0166105
66.6248	1.36144
66.9314	1.63551
66.9645	0.00928708
66.9961	1.46855
68.8413	0.605712
68.8701	0.0369228
68.9631	0.00645968
69.0556	0.792438
70.0996	1.13466
70.5234	0.00390672
71.4747	0.026814
72.1862	0.012957
73.3044	5.66534
73.4038	5.70155
73.5466	0.00398337
73.663	0.03422
73.9508	1.03666
73.9879	1.12488
74.2647	0.408105
74.2674	0.00597115
74.3479	4.90655
74.3973	4.93249
74.407	0.0442305
74.4501	0.35955
76.4185	2.2824
76.5653	2.31697
76.7433	0.0155091
76.8271	4.37131
77.5513	0.0582952
77.7516	0.0324362
77.9293	0.00303983
77.9853	5.81896
78.1799	5.66027
78.5397	0.00475116
79.2392	0.877074
79.2997	0.833373
79.4127	12.0914
80.5763	0.462433
80.6124	0.425294
81.0255	0.00651443
81.0607	0.00414096
81.7611	0.00358903
82.0602	1.52151
82.2404	1.53035
83.0854	0.0078209
84.0974	0.0171157
84.159	0.699445
84.3025	0.758655
84.3144	0.267832
84.3981	0.334634
84.5854	0.00496363
84.6726	0.0182279
85.6929	0.478056
85.8838	0.424983
86.7211	0.651255
86.7315	0.00214309
86.8165	0.615502
86.9247	0.294156
86.9843	0.254576
87.0422	0.0378702
87.1575	0.00702062
87.3785	0.541667
87.5572	0.578681
87.6108	0.0219853
88.7195	0.250328
88.8266	0.255846
88.8876	0.0163542
89.1312	0.0482236

File: Fe4O13.xy
# 2-theta (degrees)	Intensity
15.9939	0.285552
17.8347	1.41435
18.1304	3.41531
22.2155	100.0
23.162	95.0419
28.1145	13.4706
28.8223	3.81261
29.3853	1.76165
32.3105	33.4892
32.5099	0.0150676
35.6269	12.9762
36.1208	47.5454
36.5363	3.69719
36.7356	41.5817
36.8619	0.466024
37.8945	24.8392
43.3502	55.4781
43.7075	17.6329
44.2781	3.58083
44.3641	0.180585
44.4087	0.461371
45.326	22.5772
45.9859	2.87395
46.9927	0.872955
47.3448	20.464
49.1998	1.03061
49.3362	0.940422
50.1981	2.36185
50.5536	0.229203
50.9847	0.158207
51.5034	15.1494
52.8896	18.4828
54.1913	15.1133
55.4242	0.319949
55.9724	11.6443
56.416	0.128023
57.7491	0.784289
58.1274	4.44083
58.9424	0.209474
59.5655	0.49631
59.7034	27.7888
60.5137	0.585437
60.7039	0.00120941
60.8635	0.0447957
60.9639	22.4614
61.2451	0.802208
61.3846	0.0403121
61.4668	0.180221
62.1779	0.143105
63.0123	10.589
63.4212	11.3867
64.7893	0.0175125
65.327	0.161878
66.5526	0.00299583
66.8248	0.0984478
66.8901	0.541527
67.6256	11.2345
68.0872	29.9838
69.2255	0.466893
70.0708	0.0455967
70.6151	0.764554
70.7795	2.31054
70.8456	1.89901
73.6047	0.0856437
74.0639	0.524661
74.3019	0.589094
74.7718	8.2001
75.1534	0.396988
75.445	2.94213
75.8134	0.0325125
75.8778	0.936373
75.9719	0.164665
76.3082	0.0276173
76.6379	1.9946
76.6592	0.062719
76.9084	0.0167029
77.6478	8.08892
77.8066	0.832728
78.1344	2.69112
78.4436	3.43876
79.0493	0.0029168
79.3892	0.245326
79.6506	0.148182
80.2238	0.034193
80.3188	0.980001
80.5964	0.126863
80.992	7.11703
80.9955	0.764724
81.3441	5.40726
82.3387	9.80771
82.4504	5.16614
83.047	1.2384
84.5183	0.0371338
85.2769	8.08126
85.343	0.0492505
85.5238	0.0523027
85.9568	0.241692
86.4936	0.109627
87.4821	0.12982
89.1449	0.0976971
89.4559	2.8548
89.6013	0.00856963
89.6735	0.184664

File: Fe5O8.xy
# 2-theta (degrees)	Intensity
14.88	13.6644
18.2501	0.471109
23.6284	20.024
25.9211	14.4821
30.0186	37.6732
31.8865	0.931127
33.6613	4.57809
35.3571	100.0
36.9849	2.40042
38.5534	1.98094
40.0699	1.52105
42.9687	14.7987
44.3602	0.874481
45.7179	1.41027
47.0449	0.0111477
49.6173	6.1408
50.867	0.0413926
53.3026	13.748
54.4917	1.0537
55.6633	1.5537
56.8189	30.6817
59.0859	3.58624
60.1992	5.8209
62.3899	43.0631
63.4688	0.929719
64.5377	1.33981
65.5971	0.0362971
66.6477	0.0113013
67.6901	1.04124
68.7247	2.15577
70.7728	5.4904
71.7872	1.01758
72.7957	0.367317
73.7987	9.70027
74.7966	2.08297
75.7899	1.97288
76.7788	0.125229
78.7449	1.63289
79.7228	0.497105
80.6977	0.624258
81.6699	0.00886583
83.6073	0.668484
84.5732	1.71003
86.5005	5.7023
87.4625	0.111949
88.4238	0.547084
89.3847	15.5807

File: Mg2Fe3O8.xy
# 2-theta (degrees)	Intensity
17.8449	23.2846
18.4025	100.0
19.2616	5.88603
21.4342	24.5327
23.8101	2.04258
28.7251	34.6622
30.8294	0.0282251
31.2479	9.66721
31.7266	25.8671
31.8302	11.0678
35.3751	2.81325
36.1419	14.8314
36.6095	12.469
36.7879	8.89277
37.3022	6.03591
37.8579	57.2893
39.0961	26.6106
40.01	0.0134006
42.3057	5.11475
42.5484	1.47267
43.668	0.755756
44.4691	2.36176
46.3679	8.19539
46.8453	0.0729003
47.6176	52.2641
47.9882	1.70092
48.4277	0.0232438
48.7341	0.00943363
49.145	0.139416
49.5304	24.6758
49.8295	0.0288642
50.5959	1.75038
50.7813	0.0569492
52.3439	0.901754
53.2986	0.00914317
53.5352	1.46616
54.4052	7.08593
55.3919	5.08985
55.4581	5.10245
56.0187	0.0286599
57.0729	14.5385
57.3325	1.4922
58.5159	28.4856
58.7099	0.571925
58.8952	0.521107
59.2133	0.0140433
59.4865	0.995552
59.6673	1.32773
60.2511	3.19301
60.3828	1.30756
61.0972	0.459294
62.809	4.11269
62.8487	10.139
62.9929	0.0440302
64.2283	13.0316
64.7914	2.34649
65.1828	3.54943
65.3156	24.1791
65.4745	2.77697
65.9572	2.7546
66.2799	0.288674
66.3365	0.00277387
66.5181	2.14553
66.9733	1.50633
67.4401	4.13618
67.6662	0.695658
67.7401	0.30643
67.786	5.05509
67.8184	0.00197315
68.2891	1.18925
68.5539	1.25132
68.7488	0.583501
69.2129	3.18059
70.2303	2.00211
70.6582	0.0293239
70.8335	0.684924
73.1589	1.50889
73.834	0.513573
73.8809	0.646209
74.84	3.31012
75.5127	0.400862
76.3353	2.32516
76.3703	2.68692
76.4674	0.119271
76.5291	0.0665522
76.6213	1.32123
76.689	2.18531
76.7479	0.0286841
76.7841	6.0824
77.1492	0.536757
77.7841	0.579386
77.8263	4.98726
78.1686	0.840285
78.2622	2.56329
79.0531	2.15347
79.5254	4.24297
79.5317	0.00250715
79.9199	0.175055
80.9011	0.416176
81.4064	0.610718
81.7606	0.370167
82.1643	0.242748
82.3315	0.743662
82.3864	0.478938
82.406	0.886681
82.5908	1.50237
83.0956	0.958907
83.7681	0.286648
84.01	0.44612
84.0264	0.174049
84.2862	3.06361
84.4108	0.364773
84.9439	0.129864
85.1912	7.26632
86.1543	0.230669
86.3346	0.282449
86.3461	0.363006
86.4379	1.08988
86.8108	1.45138
87.317	0.486421
87.4809	0.153643
87.6791	0.326269
88.1415	0.00992836
88.3316	2.30263
89.8426	1.22748
89.8972	0.126194

File: Mg2FeO4.xy
# 2-theta (degrees)	Intensity
18.0757	7.22659
29.7276	61.8171
35.0111	100.0
36.6219	1.33688
42.5416	9.80203
46.5727	3.50359
52.7582	22.1674
56.2323	33.9018
61.7335	52.8492
64.8987	1.16061
70.0033	8.67283
72.9855	10.1186
73.9687	0.00953814
77.8566	1.16866
80.7347	0.674215
85.4832	9.9066
88.3153	17.0775

File: Mg2Mn2O5.xy
# 2-theta (degrees)	Intensity
12.4141	3.74759
18.1374	0.959573
23.9396	33.9949
24.977	11.8368
25.3711	0.580305
27.0522	12.2637
33.7714	31.1531
34.4488	25.7708
34.8701	100.0
35.9013	12.0752
36.1106	4.72705
36.7502	2.02727
37.8543	0.830686
38.595	1.05969
39.0494	3.95477
42.4608	2.18885
42.7085	7.57866
43.0205	4.58308
43.1269	0.914623
45.2877	3.77326
47.9527	0.848738
49.0125	32.0174
50.1119	0.270773
50.4822	0.664592
50.7642	6.91648
51.2511	15.693
51.6228	1.8551
52.1058	0.0288619
53.1603	0.115882
54.7954	1.08171
55.72	0.844386
55.78	5.83283
56.4189	10.1707
56.4396	3.05587
57.3244	4.86024
57.3261	1.27741
59.9334	0.850864
60.262	0.429917
61.1201	20.0866
61.1382	0.091576
61.9842	30.0096
62.6585	0.2055
62.7953	15.672
63.2216	14.6841
63.5467	2.11087
63.9518	1.49632
64.4791	0.616382
65.4503	0.173685
66.8983	0.0471353
67.4135	0.138709
68.5265	4.69695
69.3406	0.347325
70.7642	0.767464
71.0315	1.65831
71.397	0.53873
71.7019	0.18483
72.0017	0.386416
72.4422	2.69202
72.6119	0.00230667
72.6307	3.02066
73.1088	1.79462
73.6322	9.90955
74.0165	0.143695
74.0291	0.405507
75.4929	0.285105
75.5881	0.197757
75.7151	0.730067
76.1067	0.270468
76.6131	0.578893
76.7854	0.217007
76.9523	0.409548
78.1701	1.32757
78.2443	0.265146
78.3223	0.658727
78.3237	1.87788
79.097	0.736015
80.8768	0.823221
80.8921	0.0593776
81.3574	0.122649
81.3916	2.035
82.237	0.328207
82.401	6.20708
82.4169	0.0101525
82.5425	2.80154
82.7442	1.96026
83.4182	1.26731
83.6723	0.0498286
83.8916	0.892208
84.9455	0.0044036
85.4026	0.140408
85.6884	0.0758606
85.8557	6.54667
85.9069	0.493307
86.7807	0.235217
87.9215	0.694495
89.1213	1.44719

File: Mg2Mn3O7.xy
# 2-theta (degrees)	Intensity
12.931	13.6911
15.6339	7.57619
17.1348	2.22156
20.5808	18.7532
23.1216	0.0405204
23.8767	71.6491
26.0305	0.198314
26.8302	45.6692
28.6602	6.40042
30.126	5.20006
30.3324	3.01198
31.5686	7.49828
32.1503	1.33888
33.6464	100.0
34.1613	0.568971
34.6686	8.80651
35.6691	0.396381
35.7093	0.00274466
36.5574	4.8993
36.9624	3.58875
37.3961	1.44318
37.7477	1.26066
38.9526	2.17698
39.9561	0.654624
40.3513	0.117472
40.9298	1.43063
41.0568	9.14364
41.8658	1.54163
42.6016	4.84176
42.9795	46.7039
43.7155	0.857871
45.165	0.0285641
45.5441	7.58374
46.132	0.130757
46.3872	2.23161
46.9832	2.55892
47.0896	0.544926
47.3235	1.40687
47.6427	0.120588
47.7752	44.0304
48.0748	16.7218
48.3072	0.104933
48.5787	1.01026
48.7756	0.0752611
48.8772	3.94281
49.0973	0.46094
49.2114	1.70626
49.7151	0.0109975
50.2818	0.149177
50.7461	1.00247
51.0982	0.868086
51.8803	1.25918
52.3334	0.376696
52.9846	5.46235
53.0924	1.43584
53.8416	1.56265
53.9335	0.0319502
54.0017	3.45301
54.9908	2.09877
55.3251	0.335181
55.8647	0.105958
56.2258	0.00209715
56.3812	0.290473
56.4859	0.0510464
56.7134	0.23925
57.7996	0.0160571
58.2337	0.032856
58.9128	1.83657
58.9568	0.323601
59.3822	0.0489725
59.5664	0.00152678
59.628	0.131521
59.9085	0.614822
60.1373	0.553428
60.7631	0.802524
60.8645	7.23484
61.0589	0.447976
61.3832	0.521529
61.7934	0.214735
61.8698	0.0207525
62.4527	0.00153836
62.4958	0.860047
62.5909	2.1251
62.6644	17.3241
62.8642	15.9698
63.0085	0.0439814
63.17	0.0152807
63.232	0.0278738
63.368	0.312528
63.4951	0.0921783
63.8168	0.0680555
64.2279	0.0407622
64.4815	1.05393
64.6745	1.34091
64.8115	0.00764679
65.2318	0.347932
65.8417	0.357098
66.06	0.251442
66.2288	0.372649
66.4415	6.55116
66.5642	0.348397
67.0445	0.249391
67.1646	0.224124
67.2557	0.0899158
68.219	0.0153061
68.3846	0.122886
68.5866	0.367298
68.7725	0.281481
69.6581	12.2136
69.9166	1.46901
70.0443	0.0312292
70.1463	0.0859286
70.5682	2.09344
71.0523	0.602995
71.8281	0.00778418
71.9505	0.00121988
72.1311	0.484268
72.3867	0.130934
72.5059	0.129321
72.5514	0.199859
72.8745	0.00628277
73.1526	0.0057789
73.3393	2.59692
73.5703	0.227455
73.6918	0.0313796
73.7566	0.00823221
73.8931	5.22803
74.0896	0.0266173
74.3694	0.477798
74.4587	0.0210461
74.5507	0.018427
74.6639	0.306256
74.7955	0.252944
74.9083	1.15683
75.0838	0.0702401
75.5465	0.423128
75.6047	0.0386466
75.671	0.233351
75.9991	0.554045
76.1632	0.00306746
76.2406	0.0119591
76.7166	1.35292
76.8133	0.01711
77.5009	0.00842937
77.5413	1.10149
77.6994	0.107478
77.9553	0.00180171
78.6672	0.0658656
78.7276	0.131275
78.9295	0.146618
79.1329	0.151559
79.378	0.00214353
79.3938	0.156336
79.6965	0.116528
79.7911	0.07202
79.9967	0.474687
80.1648	0.174829
80.3183	0.400578
80.5746	1.30547
80.803	0.243026
81.1003	0.24873
81.4163	0.0134794
81.5341	0.262553
81.7169	0.027857
81.8568	0.275707
81.9627	0.605509
82.0046	0.0397336
82.2977	0.620174
83.0038	0.0921681
83.1253	0.356669
83.3154	0.042562
83.4457	0.0230803
83.6463	0.219541
84.0892	2.02393
84.1846	0.00401853
84.3194	0.00764849
84.7542	6.36647
85.0177	1.71051
85.5526	0.0993429
85.6937	0.0212949
86.0138	0.0253074
86.4781	0.0296474
86.5693	0.021929
86.7992	0.120989
86.9245	0.0363877
86.9826	0.00528305
87.2285	0.044739
87.3846	0.0354778
87.5104	0.0363734
87.5972	0.0270038
87.8042	0.0181877
88.0612	0.122524
88.1633	1.37792
88.2308	0.11877
88.3533	0.778535
88.5787	0.343968
88.8153	0.0480614
88.8408	0.513571
88.8763	0.0594037
89.0697	1.52188
89.1278	0.0376071
89.2301	0.110618
89.3414	0.0216238
89.5722	0.0202085
89.7392	2.39607
89.8846	0.0139831

File: Mg2Mn3O8.xy
# 2-theta (degrees)	Intensity
18.1041	16.4803
18.1769	0.294845
18.9271	100
20.515	13.3413
23.9206	1.60718
25.7641	4.5218
26.359	9.32991
30.6789	45.726
31.1249	0.00144005
32.6101	14.5444
34.0607	10.7317
36.2795	6.85504
36.681	13.4529
36.8326	7.52031
37.5687	40.3882
37.5845	3.73673
38.1057	16.2182
38.3969	3.11718
40.1462	0.287969
41.2298	23.1861
41.333	0.406992
41.7272	11.586
42.792	0.460264
44.738	6.88445
45.7464	1.98249
46.8048	31.2845
47.2549	12.9665
48.5032	1.24206
48.9716	0.0871271
49.9904	0.671162
50.003	4.85868
50.2254	0.8814
51.2302	0.125132
51.2382	0.487037
52.2168	0.209665
52.2533	0.20712
52.9605	3.29059
53.8524	10.6804
54.2593	10.3587
54.8176	0.069016
55.1015	4.09048
56.3277	6.46858
56.5726	0.0285189
56.7613	0.896472
57.4957	0.115641
57.671	5.28243
59.0099	0.00638089
59.1104	2.21461
59.6992	1.13848
59.9091	1.20017
60.2107	2.91014
61.5438	0.0874394
62.0816	32.5597
62.3879	0.0468729
62.4211	1.1972
62.4538	11.7825
62.5599	0.678774
63.8859	0.324805
64.5816	0.331221
64.6914	1.14582
64.7559	0.351606
64.9019	12.1304
65.0127	3.99983
65.8002	0.205063
65.9884	21.7213
66.8335	1.6144
66.844	4.3465
68.021	0.025976
68.2782	4.02913
68.3196	0.560775
68.8537	0.59218
69.2168	1.92365
69.3381	7.48357
70.2347	0.744185
70.4514	0.221645
71.3251	0.802589
71.3657	3.46655
71.4274	0.483071
71.713	2.84768
72.4418	1.22031
72.6254	0.0684107
73.2458	0.129812
73.276	1.43678
73.4251	0.138828
73.8718	0.399198
74.9173	0.625403
75.3678	1.74751
75.4176	0.603075
77.023	1.84735
77.6749	0.377214
77.7045	0.0285764
77.8165	3.56092
78.0009	1.30664
78.3716	0.0916575
79.0093	2.50007
79.1612	2.66122
79.8071	0.333279
80.0432	0.276051
80.1836	2.01637
80.2227	0.107023
80.4694	0.00961971
80.9095	0.0573164
81.2539	0.0775144
81.5182	0.688914
81.732	3.6381
81.9765	0.183746
82.0355	0.114918
82.0647	1.5257
82.2467	2.75818
83.5979	1.91655
83.9543	0.750064
84.0934	3.43967
84.1419	0.688504
85.0235	0.0997403
85.1236	0.14772
85.4166	2.28577
86.0437	0.217117
86.3153	0.280125
86.6976	0.0312916
87.1132	0.200908
87.1904	1.44981
87.4731	0.66137
87.4827	0.0920502
87.8885	0.387671
87.9174	0.0862215
88.3797	0.112309
89.2116	1.00205
89.3868	0.0197761
89.5252	3.69273
89.7973	0.291905

File: Mg3Fe2O7.xy
# 2-theta (degrees)	Intensity
10.08	9.86158
18.0552	0.143426
20.2391	36.3901
24.4336	51.7295
28.4095	18.4009
30.5622	1.53596
30.8912	0.161054
32.9935	36.3195
34.5838	0.240009
35.0681	24.8049
35.1322	100.0
36.5792	0.048351
37.862	2.06667
38.9083	5.14522
39.0142	1.38659
40.0459	12.6943
40.2957	7.52608
40.6573	6.25498
40.8236	2.10928
41.1467	1.11896
43.5135	8.18348
44.2412	0.735048
45.5882	1.2569
45.8231	5.14161
47.1917	0.247378
48.9132	33.2137
50.0557	0.110103
50.0763	7.73966
50.2655	0.139
52.113	16.8607
52.8243	0.19958
53.0064	17.9219
53.4546	15.1341
53.718	4.60776
53.9914	14.8544
54.0062	0.0353869
55.1453	0.418968
56.149	13.873
56.1634	0.888109
56.8125	3.3327
57.9148	0.327105
58.783	3.5101
58.9016	2.70152
60.311	14.4639
60.3248	0.383767
60.8115	0.524846
61.2639	0.368319
62.8953	0.312028
62.9501	38.4473
63.0741	14.7623
63.425	0.459784
63.6207	0.00118886
63.8845	0.237709
64.3689	13.4175
64.7588	0.511763
65.7807	2.92085
66.2543	3.98039
66.6992	0.0292171
66.8042	0.426015
66.9049	0.0481216
68.7676	0.350253
69.2108	1.29932
70.1539	0.758292
70.4995	0.249624
70.9485	0.611133
71.5368	0.455258
72.2004	1.35134
72.3948	0.0120431
72.9511	2.87388
73.558	0.100615
73.788	6.24635
73.8006	0.0561932
74.0488	0.120434
74.1049	3.06528
74.2579	10.0295
74.7648	0.00125919
74.803	1.77697
75.0224	0.129051
75.8981	0.131227
76.0426	0.506484
76.1922	2.14487
76.4932	0.417314
77.0062	0.860154
77.1462	0.997146
77.4011	0.154329
77.5253	1.78491
77.6974	0.0571448
77.7525	2.09448
77.957	0.71343
78.8152	1.11841
80.0144	1.75725
80.1065	0.250856
80.9112	1.55477
81.8834	0.273453
82.2439	0.279964
82.4015	4.66074
82.8289	1.27663
82.841	0.0527799
83.2398	0.112896
83.5342	2.67261
83.5891	3.81983
83.8024	1.09934
84.1736	1.07511
84.4235	1.86457
84.5695	0.249151
85.0461	0.00111534
85.1638	0.129789
85.2746	1.96786
86.0019	0.394094
86.4387	2.71852
87.0843	2.64477
87.3613	6.328
87.7295	0.556235
88.0241	3.35417
88.4583	0.26625
88.7509	0.231385
89.3061	0.0813026

File: Mg3Fe3O8.xy
# 2-theta (degrees)	Intensity
18.0498	17.1832
18.1303	2.47764
20.9413	3.64806
29.7347	18.5023
29.8354	61.6942
35.0033	38.9716
35.0904	100.0
35.1339	16.1248
36.5679	0.657849
36.7355	0.0228583
42.6261	19.905
46.537	1.18707
46.6403	1.46825
46.7434	0.0802081
47.8859	5.2884
48.0206	0.636862
52.7088	9.66271
52.8972	6.82814
52.9599	10.749
56.1452	0.568599
56.2656	6.08351
56.3557	23.0306
56.4158	23.6291
61.7497	36.5096
61.9766	37.5101
64.8779	1.46658
64.9884	0.157328
65.1263	2.54719
65.1538	0.0909298
65.8569	0.0499356
66.076	1.90863
66.1854	0.17042
70.0755	7.87442
70.235	2.45147
72.8911	5.8255
73.2048	7.58933
73.2832	1.67366
73.95	0.0112676
74.1581	1.58093
74.2621	0.144997
77.7249	0.795454
78.1341	1.90174
80.6975	1.04998
80.8242	0.791778
80.9255	0.310596
81.0015	0.242211
81.0774	0.229994
81.7245	0.0369768
82.0277	0.136467
85.4078	1.13751
85.6587	4.44252
85.8091	1.4623
85.8593	4.95249
88.182	1.86495
88.3322	5.67226
88.4573	0.831906
88.5573	1.51484
88.6324	3.52574
88.6824	11.9813

File: Mg3Fe4O7.xy
# 2-theta (degrees)	Intensity
8.2467	5.75555
16.5365	2.07663
20.8576	18.2852
23.9659	1.49529
24.9146	7.74887
29.2582	0.306304
29.5041	8.2195
31.8275	0.889252
33.4305	2.26533
35.8665	34.0216
35.9081	34.0746
36.0719	0.164751
36.9063	0.725905
39.7719	1.3653
41.5642	51.165
41.7346	100.0
42.1414	0.190534
42.4495	0.221617
43.3093	0.345921
44.2012	8.42004
45.0206	0.301897
48.4316	0.256189
49.069	2.25406
49.8708	1.38771
51.1159	0.00143361
51.3723	0.347113
51.7908	2.98838
53.2837	0.357097
54.3546	0.945326
55.9366	0.134438
56.1865	0.0811554
56.5334	0.203457
59.9885	2.33258
60.3665	57.6563
60.4408	14.1074
60.5526	14.2277
60.6788	0.109668
61.2308	0.0896379
63.2395	0.0961095
64.0424	0.026754
64.1494	1.15332
64.4756	0.66728
64.7802	1.29849
65.6866	0.183358
65.7817	0.0728792
66.0831	0.279417
66.5118	0.832287
67.9163	0.00118108
68.3551	0.0207585
68.6509	0.0785198
69.1815	0.0590363
70.2317	0.0461008
70.963	0.379154
72.0418	0.11976
72.1329	4.80488
72.1584	4.82044
72.3452	9.45976
72.4218	9.5524
72.7798	0.0800604
73.0665	0.229466
74.6316	0.165784
76.0228	12.9624
76.1231	13.1029
76.5195	0.0495098
76.7326	0.0867239
77.0508	0.0521651
77.333	0.125441
77.6829	1.29564
78.5522	0.0985724
79.0494	0.0133969
79.3832	1.20927
80.652	0.0191353
81.4787	0.137156
81.56	0.905304
81.8977	0.292815
82.7722	0.0353159
83.0684	0.0710719
83.1442	0.00742093
83.3456	0.203966
85.0417	0.0537363
85.7338	0.442476
87.2558	0.0535943
87.7377	0.277179

File: Mg3Mn4O7.xy
# 2-theta (degrees)	Intensity
8.07776	2.7031
16.196	1.46406
20.5353	16.6375
23.5642	1.39277
24.3971	4.75834
28.7263	0.483783
28.906	7.53617
31.1772	0.891159
32.7274	3.16807
35.1751	31.4149
35.2312	31.0273
35.3252	0.501142
36.205	0.471176
39.0002	0.942532
40.8563	100.0
40.9093	50.0508
41.2398	0.254766
41.77	0.104968
42.4368	0.150609
43.3198	5.68403
44.2699	0.208951
47.392	0.00324373
48.2062	1.35745
48.8462	2.15144
49.9977	0.147852
50.2973	0.278056
50.8642	2.68911
52.3152	0.352155
53.3447	1.31782
54.7067	0.0616366
55.136	0.235706
55.3343	0.192411
58.6849	1.28421
59.0803	14.2418
59.1962	57.3853
59.2312	14.3851
59.489	0.145912
59.8905	0.031604
61.843	0.0684015
62.6356	0.12308
62.6967	0.478232
63.3825	1.18588
63.3878	0.592776
64.3593	0.00288314
64.6473	0.133629
64.6525	0.0667967
65.0214	0.497767
66.5115	0.109804
67.1387	0.0725823
67.1438	0.0362823
67.6143	0.274266
68.5918	0.00332708
69.3396	0.527631
70.5181	0.0554831
70.6908	9.09382
70.7936	8.91473
70.7986	4.45647
70.8329	4.42645
71.3493	0.531772
71.4336	0.048197
73.2236	0.112269
74.3606	12.9512
74.495	13.1088
74.7202	0.067344
75.0841	0.030406
75.5463	0.0365432
75.5511	0.0182678
76.1708	0.843948
76.8421	0.0688726
77.168	0.033534
77.6168	0.500304
78.677	0.00565399
79.523	0.0313966
79.7451	0.534926
80.2368	0.438273
80.7322	0.0630452
81.1184	0.0584042
81.351	0.107331
81.3558	0.0536567
83.0642	0.00292608
83.7668	0.60196
85.3953	0.0522401
85.6675	0.626459
87.5068	0.0346334
88.2052	0.717806
88.2099	0.358861
88.5439	7.82822
88.6828	3.96802
88.8953	0.0846162
89.2453	0.112198
89.2513	0.0099566
89.5515	0.0789838

File: Mg6MnFeO8.xy
# 2-theta (degrees)	Intensity
10.2291	34.5644
20.541	8.96701
20.6758	0.0325113
23.1179	0.0745941
29.3064	0.028557
29.4032	7.1747
31.0243	4.80042
31.208	12.0179
36.1371	37.4935
37.5763	0.00406289
41.7819	50.7512
42.0661	100
43.2697	4.74965
43.408	3.89725
47.0563	0.0113078
47.2505	3.52715
47.3151	0.00918402
48.542	0.0225928
51.9119	2.51385
52.0926	0.0132576
52.9411	0.224047
53.1787	3.56569
57.4369	0.0144729
57.6619	0.00357245
60.7869	56.983
61.0042	28.3199
61.7173	1.43785
62.0403	1.17921
64.6723	0.327567
64.9346	0.00829007
65.0917	1.18662
65.144	0.00173938
66.1437	0.00422208
68.6916	0.00194457
69.0986	0.00277179
69.1494	0.961775
69.8177	0.365092
70.0199	1.38635
70.1208	1.8534
72.6036	6.34763
73.0011	12.4234
73.7039	0.0121486
76.6775	25.7728
77.2225	0.390743
77.7088	1.30252
80.2024	0.669322
80.4432	0.00215812
80.6357	0.00184412
81.5575	0.0044701
83.929	0.00228004
84.1676	1.08053
84.3107	0.00316776
84.7011	0.491623
84.987	0.219371
88.6836	0.00356835
88.8735	0.00127252