Folder: XRD_mixture/xy_files (part 6)

File: Mn7Fe3O20.xy
# 2-theta (degrees)	Intensity
10.9898	0.00268467
17.5057	0.00111797
18.0466	0.00837949
18.3748	52.4267
19.5055	0.00217878
20.1146	0.00474562
22.0824	0.00150885
23.7199	0.0139732
27.3843	0.00174126
30.3711	0.0362496
30.5971	0.00838736
30.6958	0.0450732
31.3193	0.0196838
32.3975	0.0042099
33.5378	0.00434997
35.117	0.0129047
35.4943	0.00664633
35.6729	12.2309
35.6871	5.71624
35.8361	0.00125448
36.0109	10.8964
36.8548	0.0184247
37.2445	4.94268
37.8005	0.00899343
38.0628	0.00836262
39.0802	0.00135634
40.2082	0.00105076
40.4413	0.00169485
41.456	0.00226311
42.5695	0.00307903
42.9312	0.00371023
43.4073	33.9316
43.6493	0.00956087
45.2317	0.0131725
45.804	0.00752729
45.9495	0.00307346
46.2212	0.00148011
47.3005	1.50675
47.3227	0.00204877
47.3955	0.00335531
47.5058	3.69293
47.7602	2.82883
47.9469	0.00652114
48.1134	3.41888
48.4625	0.00679903
48.5404	0.00165561
49.0083	0.0105086
49.4554	0.00196859
49.8968	0.00515804
50.4003	0.004927
50.7361	0.00684757
51.0492	0.00334911
51.3312	0.00746571
51.6137	0.00432287
51.9339	0.00261273
52.5751	0.00582075
53.0857	0.00637747
53.7069	0.00202259
53.7261	0.0032209
54.3052	0.00167476
54.37	0.00515046
54.3952	0.00348883
55.0234	0.0014778
55.2681	0.00272925
55.6328	0.00307999
55.7611	0.00189541
56.062	0.00336426
56.6086	0.00173696
57.2391	0.437742
57.4077	2.67481
57.4584	5.22897
57.6172	0.00192478
57.8499	4.91992
58.0236	0.00397364
58.6692	0.00238465
59.3204	0.00163138
59.8624	0.0030059
60.4801	0.00148461
61.0868	0.00135887
62.5117	0.00241358
62.7131	0.00139436
62.8554	0.00277097
63.1872	17.4825
63.3245	0.00505558
63.7632	0.00210802
64.1953	0.00177054
64.3335	0.0108281
65.2212	0.00109502
65.3462	0.00435966
65.399	0.00604576
66.042	2.3767
66.1202	0.00637867
66.302	2.29204
66.3332	2.27553
66.4316	0.00187929
66.5126	2.26525
66.6992	2.341
67.0228	0.00124999
67.0736	0.0310616
67.1314	2.23128
67.2381	0.0258159
67.737	0.00254355
67.8345	0.0274034
68.2115	0.0087752
68.7565	0.00522316
69.3526	0.00862094
69.5648	0.00757233
70.0252	0.0011824
70.0681	0.00108333
71.4585	0.0113542
71.6049	0.0123807
71.8548	0.0108249
72.5191	0.00111406
73.9041	0.00387865
74.3664	1.33179
74.4461	0.609456
74.9898	0.00288365
75.0849	1.25179
75.3744	0.00461805
75.4174	1.15859
75.5557	2.03987
75.5609	0.00476796
75.7345	0.00697358
75.8486	1.92153
76.3615	1.87342
76.4403	0.00141133
76.72	0.00195672
77.9474	0.00156124
78.3755	0.00261652
78.9688	0.0023849
79.3425	3.82189
79.5518	0.00147557
80.442	7.61014
81.0622	0.00103186
82.1519	0.00281198
82.1789	0.941341
82.5038	0.00175747
82.6213	0.00270887
82.644	1.93455
82.6818	1.92371
82.7703	0.65601
82.8346	0.00101544
83.0101	1.72332
83.2399	0.542368
83.527	0.00149448
83.7087	0.00392358
83.845	1.74029
84.2964	0.00161811
84.8562	0.00396906
85.1019	0.00483386
85.29	0.0011533
85.8045	0.00144231
86.0607	0.00320974
86.8353	0.00136028
87.0652	0.00163702
87.1535	0.00411395
87.2525	0.0015147
87.4127	0.00400397
87.4577	0.00430916
87.4708	0.00371078
87.8825	0.00335496
87.9677	0.00306577
88.2381	0.00959861
88.573	0.00217878
88.6968	0.00200636
88.7381	0.00535731
88.8261	0.00213092
89.2194	0.00338103
89.7677	0.0017888
89.8103	0.00122343

File: Mn7O12.xy
# 2-theta (degrees)	Intensity
17.3643	25.5333
24.6526	8.4215
30.3131	11.8279
35.1441	100.0
39.4541	10.8215
43.4012	0.434375
47.0792	6.541
50.5493	30.1345
53.8543	4.80589
57.0254	3.73251
60.0864	3.75148
63.0559	50.6723
65.9491	2.23438
71.5546	2.23374
74.2865	12.8337
76.9822	2.8194
79.6488	0.568344
82.293	1.6153
84.9207	15.6577
87.5378	1.19341

File: Mn9(FeO6)4.xy
# 2-theta (degrees)	Intensity
7.08518	10.286
15.4064	3.22905
15.4567	1.91091
18.415	100.0
21.2847	3.00494
22.4375	3.02226
23.2997	0.890973
23.404	1.14895
25.7161	1.63815
29.2172	0.617367
29.3356	0.662248
30.2886	1.06402
30.3868	1.17217
31.1401	0.33477
33.5551	0.606037
33.6817	0.20343
34.1336	0.568574
34.1904	0.570094
35.6611	18.2442
35.7248	9.54994
35.7726	17.7514
35.8858	0.186697
35.9985	0.289053
37.3283	11.7825
38.5239	0.406565
38.5903	0.274093
42.0783	0.149136
42.1316	0.0832435
42.2754	0.0953619
42.551	0.311325
42.6409	0.178061
42.7202	0.307565
43.3518	72.8192
43.9616	0.22402
45.7984	0.178434
46.2221	0.316803
46.3545	0.114802
47.4763	2.92855
47.4891	2.86754
47.59	3.50079
47.6779	2.63324
47.8629	0.0802765
48.754	0.0777807
48.8712	0.0985511
49.0029	0.112494
49.322	0.0643174
49.4414	0.104457
49.7836	0.151855
49.9459	0.225549
50.0403	0.122923
51.0417	0.15568
51.1794	0.122084
52.6898	0.216364
53.1092	0.114601
53.1428	0.20567
53.2785	0.118218
53.3699	0.229916
53.7814	0.133153
53.837	0.0365291
53.9657	0.10555
56.039	0.0489291
56.2712	0.184488
56.3219	0.157903
57.2974	7.4278
57.3411	0.941114
57.3747	1.88533
57.4533	0.164324
57.4733	0.357277
57.5318	0.241781
57.606	1.18768
57.6692	0.362657
59.2504	0.051741
59.3644	0.174853
59.4375	0.0981338
59.5085	0.108783
59.6869	0.0822193
60.6772	0.115163
61.9945	0.159248
62.0979	0.214594
62.3225	0.0591132
62.3734	0.0386055
62.4531	0.0630692
62.681	0.0559143
63.0004	23.7525
63.223	23.653
63.5156	0.0531373
63.6259	0.0527373
64.8459	0.0948455
65.0825	0.0518318
65.2014	0.0859072
65.3679	0.0609174
65.527	0.0468569
66.1435	2.17985
66.1906	2.18691
66.2547	2.07268
66.3428	2.17614
66.363	2.26673
66.4782	2.1118
67.2399	0.125411
67.293	0.0808002
67.3219	0.14284
67.508	0.0349595
67.617	0.101992
67.8613	0.0485517
68.0346	0.0676103
68.1175	0.0637096
68.1467	0.0539336
68.2956	0.0599043
69.1198	0.0147283
69.226	0.0181895
70.5235	0.0345494
70.8207	0.0233554
70.8755	0.056904
70.885	0.073017
71.068	0.0644448
71.165	0.0411509
71.4176	0.016708
71.5746	0.0148941
71.8225	0.0171132
71.8849	0.0617375
72.0192	0.0660205
73.2779	0.0423759
73.3123	0.0744168
73.4284	0.0814029
73.6746	0.0587091
73.7858	0.106538
73.9299	0.0225769
74.0213	0.00642009
74.4886	1.93863
74.5659	1.84199
74.5946	0.144275
74.6512	0.00172864
74.8003	0.136477
74.9573	0.930384
75.4637	2.31995
75.5663	2.33628
75.7322	2.26069
75.9878	1.128
76.3254	0.0153961
76.3331	0.0112038
76.5543	0.00779923
78.59	0.0392088
78.6359	0.0306325
78.8706	0.166321
78.9764	0.033154
79.0691	0.0326521
79.5384	4.00304
79.9419	4.02305
80.0942	0.0490763
80.2344	0.0777802
80.4378	0.0470945
81.5917	0.0513025
81.6531	0.0729831
81.7039	0.011335
81.7749	0.0174865
81.8327	0.0149156
81.9996	0.0852462
82.1299	0.00898981
82.4503	0.630104
82.5254	0.506398
82.5501	1.79359
82.5747	0.941384
82.6033	0.590328
82.7323	0.0264847
82.8002	1.86334
82.9094	1.5693
82.9686	0.283505
83.4661	0.10581
83.6141	0.100784
83.8176	0.140114
83.9136	0.0721545
84.091	0.11026
84.166	0.056936
84.2318	0.0644069
84.2543	0.044179
84.2948	0.0250045
84.3848	0.0387199
84.4478	0.0385546
84.6864	0.0605099
85.1612	0.0757881
85.2846	0.075217
85.4506	0.0705785
85.7103	0.0346419
86.7995	0.0839381
86.8864	0.0269602
87.0638	0.0455913
87.3122	0.0627584
87.3817	0.0660664
87.4353	0.0580283
87.5722	0.0634376
87.6837	0.0681687
87.7909	0.0745838
89.1432	0.109424
89.3942	0.0139632
89.4905	0.0843276
89.5548	0.0568492
89.5833	0.0202061
89.6432	0.0491146
89.836	0.0558403
89.9526	0.0981494

File: Mn9FeO10.xy
# 2-theta (degrees)	Intensity
8.53409	0.155179
12.9683	0.018843
13.9584	0.0249802
16.9866	0.0148309
17.116	0.0390269
19.2128	0.00565234
23.6365	0.0174703
25.7959	0.0142999
28.8607	0.0023471
32.7943	0.00288816
34.3573	23.3957
34.3616	23.3821
34.4333	0.00666816
34.4664	0.00991785
34.4839	46.3541
34.6295	0.00174668
36.5691	0.00875821
36.7128	0.00556198
38.12	0.00817618
38.6915	0.0066371
38.9939	0.0090663
39.6059	0.011366
39.7231	0.00453227
39.7848	51.0566
40.0421	100.0
40.5932	0.00969429
40.8123	0.00164619
40.8843	0.010218
42.4192	0.00633753
42.7571	0.00231911
42.8672	0.0090117
43.1713	0.00293905
44.4618	0.00282695
46.8004	0.0409519
47.4698	0.0017583
48.3615	0.00444833
48.5136	0.0165078
51.8162	0.00170261
51.9685	0.00130846
52.7471	0.00351007
52.8423	0.0026591
53.0299	0.00295192
54.4533	0.0140941
54.771	0.0034626
55.2688	0.00293135
56.5863	0.00330219
57.7193	29.4793
57.725	29.451
57.7511	14.6674
58.083	14.4335
58.1609	0.00122304
58.8274	0.00259771
60.0555	0.00121522
60.1097	0.00266537
60.323	0.00744222
60.5788	0.00254376
60.6841	0.0018845
61.0268	0.00243128
61.5693	0.018001
61.6331	0.00271737
62.8676	0.00599001
62.9916	0.0054946
63.5896	0.00198626
64.5391	0.012178
64.5934	0.00194081
65.4002	0.00431806
65.9415	0.00651
66.6678	0.0112182
67.2737	0.00324835
67.3666	0.00104582
67.5045	0.0153135
68.5505	0.00525152
68.7473	3.06581
68.7551	3.06238
68.8266	6.11179
69.0271	6.04853
69.0323	6.04401
69.1294	0.00693831
69.2541	5.99957
69.2567	5.99733
71.3882	0.00148894
71.5765	0.00199805
71.9882	0.00179858
72.0261	0.00145179
72.1875	0.00258601
72.3274	0.00288327
72.4141	6.74604
72.4242	6.73467
72.5942	0.00319979
72.7139	13.354
72.9093	0.0053046
73.4577	0.00371521
74.519	0.00219258
74.8336	0.00347158
75.0515	0.00115887
75.6658	0.00200907
75.7154	0.00162734
76.6441	0.00197132
77.3835	0.00756707
77.9083	0.00476634
77.9814	0.00324647
78.7338	0.00722233
78.8652	0.00212849
78.9811	0.00602549
79.9083	0.0016111
79.9725	0.00939496
80.1617	0.00179615
80.9689	0.00236409
81.0765	0.00167048
82.3743	0.00127818
82.5253	0.00160844
82.6457	0.00758846
82.6875	0.0011643
82.9872	0.00194274
83.5109	0.00127026
83.6488	0.00103767
83.942	0.00173387
84.0796	0.0018663
85.4184	0.00192701
85.4476	0.00193132
85.6087	0.00256551
85.767	4.09102
86.4288	8.00212
86.7402	0.00302667
88.1908	0.013248
88.4148	0.00102913
88.6173	0.00462397
88.6768	0.00102701
88.8588	0.00147668
89.1864	0.00213853
89.389	0.00174473

File: Mn13Fe3O32.xy
# 2-theta (degrees)	Intensity
11.9604	0.00129557
15.0293	0.0017064
18.3553	53.2716
18.5628	50.0508
18.5683	100.0
21.4055	0.00498721
21.4115	0.0102144
24.5511	0.00128166
28.7387	0.0020513
28.8741	0.00248483
29.0437	0.00137008
30.3252	0.00765379
30.3278	0.0146178
30.5871	0.0638542
30.5983	0.0327243
32.3498	0.00403096
32.7721	0.00307026
32.8631	0.00403179
34.0691	0.00135309
34.254	0.00363799
35.6776	6.01255
35.6822	11.8627
35.9054	12.1104
35.9069	12.0173
35.9159	11.9733
36.0143	5.19625
36.0277	10.4933
36.0306	0.00130284
36.4264	0.00102353
37.204	4.96249
37.6365	4.56908
37.648	9.14958
38.9677	0.00576184
39.2801	0.00208679
39.6017	0.00104981
39.6976	0.0014476
40.3877	0.00292388
40.6487	0.00250497
40.7917	0.00100903
42.3467	0.00232914
42.7113	0.00209225
43.6073	33.4761
43.62	66.8419
44.6501	0.00259976
45.1256	0.00204964
45.1269	0.00131079
45.5671	0.00161937
46.2002	0.00289483
47.4203	1.80337
47.4214	3.65751
47.6874	1.25681
47.6957	2.47852
47.9546	3.35075
47.9617	3.36082
47.9747	3.32209
48.2887	0.00107652
48.9011	0.00295918
48.9035	0.00273931
48.9099	0.00315202
49.249	0.00466752
49.2577	0.00386448
49.2699	0.00407848
50.4706	0.00218615
50.9165	0.00153979
51.2001	0.00229006
51.8498	0.00230813
53.1416	0.00137238
54.2034	0.014514
54.2082	0.0152388
54.2207	0.014899
55.0984	0.00234373
55.5777	0.00110896
55.6923	0.00140556
56.4318	0.0020432
56.434	0.0014376
56.7797	0.0010771
57.1734	0.340035
57.4835	2.72445
57.495	5.408
57.7191	4.87691
57.7285	4.90886
57.7388	4.89501
57.8723	2.47344
57.8744	0.605234
57.8931	1.21327
57.8941	4.9764
57.9638	0.00102366
59.5167	0.00156422
60.2924	0.00162097
61.9979	0.00120426
63.0834	8.68579
63.0892	17.3575
63.6772	17.2713
63.7027	8.60996
66.2355	2.27382
66.2384	2.28914
66.2432	2.31038
66.5253	2.34532
66.5281	2.31981
66.5396	2.35641
66.8858	2.25437
66.8877	2.22568
66.9116	2.23702
66.9515	2.26027
66.9687	2.27674
66.983	2.26515
67.1511	0.0209546
67.1516	0.0396293
67.7204	0.022253
67.736	0.0449565
68.0046	0.0132523
68.0197	0.0134402
68.0344	0.0140095
71.7229	0.01061
71.7327	0.0105846
71.7415	0.00997424
72.1376	0.0123791
72.1561	0.0130689
72.1695	0.0131562
72.6297	0.0012175
73.2722	0.00127431
73.5091	0.00117445
74.3581	0.652858
74.3618	1.32808
75.179	1.23849
75.1917	1.22604
75.2063	1.24428
75.3792	0.550517
75.4101	1.0853
75.5672	1.02123
75.5781	2.04411
76.1166	1.89147
76.1203	1.89208
76.142	1.89676
76.3799	0.911307
76.4125	1.8286
79.2833	3.75788
80.3515	3.81363
80.38	7.60706
82.504	1.00044
82.5084	2.01257
82.8299	0.316862
82.8353	0.863315
82.8485	1.71256
82.8512	0.619809
83.0965	0.643217
83.116	0.634245
83.1284	0.631532
83.2932	0.240682
83.3269	0.489418
83.5015	1.75836
83.5103	1.75798
83.5413	1.76056
84.8361	0.00109294
85.6984	0.00103683
87.3152	0.00223038
87.3188	0.00213029
87.3227	0.00265736
87.9765	0.00795687
87.9869	0.00779143
88.0015	0.00780167
88.3748	0.00370283
88.3814	0.00429611
88.4131	0.00392655
88.4988	0.00655795
88.5274	0.00743234
88.5445	0.0070567
89.6797	0.00104538

File: Mn17Fe13O40.xy
# 2-theta (degrees)	Intensity
12.3636	0.0168986
15.5163	0.0975622
16.5099	0.0096975
17.6789	36.7927
20.3529	0.00212072
20.6165	0.0406666
21.7764	0.0476229
23.5126	0.149607
23.805	0.0327013
26.89	0.0873966
28.8034	53.6524
29.0867	0.0328639
29.2031	51.3205
30.0148	0.0541257
30.7358	0.00111599
31.4829	0.00156722
32.2584	0.0126535
32.3948	0.217408
32.7812	0.401335
32.9737	0.507671
33.3946	0.0551581
33.9203	93.1522
34.0795	89.7881
34.5795	98.1809
35.4953	0.0125251
35.6349	0.0285299
35.7405	25.253
37.2888	0.0519868
37.5056	0.00347991
37.695	0.00158533
38.4373	0.00304262
38.5567	0.0306229
39.7166	0.0291648
39.9063	0.00606946
41.2281	0.0199796
41.5059	0.00900044
41.9411	0.0342594
42.3186	0.0514398
42.5501	0.00535239
42.6513	0.0320549
43.0145	0.0310573
43.2248	0.0163406
43.8009	0.0191414
44.2958	0.0449662
44.6972	0.0202226
45.1237	0.0432829
45.4443	0.0548721
45.65	0.0342343
46.2047	0.022929
46.3498	0.00318728
46.4082	0.00642785
46.5405	0.00538516
46.6979	0.00386872
46.8928	0.117027
47.0447	0.110819
47.2051	0.0667306
47.7792	0.0131974
47.9951	0.00339963
48.0736	0.0476372
48.2304	0.0504488
48.655	0.111996
48.7908	0.12004
49.3414	0.0313247
49.9106	0.0152869
51.058	8.81027
51.1622	0.00225391
51.2878	9.10336
51.4204	0.0276791
51.9284	7.94625
52.0898	0.00271689
52.2461	0.026018
52.3903	0.0793721
53.1019	0.0240594
53.2537	0.0262521
53.4012	0.0214632
53.4533	0.00118213
53.512	0.167194
53.8425	0.124713
54.1604	33.1474
54.4811	34.2032
54.6059	29.5476
55.3002	0.00767176
55.3926	0.00184362
55.497	0.00328726
55.5593	0.0120182
55.6255	0.0220868
55.6778	0.102783
55.7853	0.00131853
55.9549	0.0545852
56.8064	0.00480189
57.0205	0.0224098
57.2657	0.0177135
58.0918	0.00969675
58.3307	0.00417817
58.5799	0.0100665
59.5495	87.0714
59.6892	0.013278
59.8151	0.0016445
59.9069	0.00757307
60.0535	0.00544056
60.3239	0.0077283
60.4013	0.0166212
60.686	0.00503016
60.9651	0.00988313
61.1974	0.0137719
61.4058	0.0123746
61.6239	0.120546
61.8389	0.0459284
61.9715	0.160193
62.1705	0.00448009
62.4385	1.37199
62.6509	0.718174
62.8334	1.2765
63.0298	1.4093
63.4367	1.19785
63.5728	0.00827305
63.6224	0.00890544
63.7855	0.770607
63.8283	0.0447952
63.845	0.695213
63.8959	0.0519784
63.9878	0.0184367
64.0701	0.0469842
64.1809	0.00344406
64.3762	0.0154644
64.5681	0.00142089
64.7214	0.00732901
64.9364	0.0102475
65.2883	0.00637918
65.6186	0.0964816
65.7248	0.0769075
66.2759	0.0199111
66.552	0.0203462
67.2375	0.00429301
67.3413	0.040837
67.4551	0.0027319
67.526	0.0355249
67.6388	0.0114344
67.7055	0.0183327
67.7672	0.0279636
67.8088	0.00405275
67.8511	0.0197564
67.9785	0.00437956
68.0187	0.00396606
68.1669	0.00959692
68.3828	0.0164258
68.4228	0.00414943
68.5614	0.00218084
68.6546	0.00231539
68.8091	0.00348951
69.038	0.00436302
69.1976	0.0016823
69.6194	0.00429833
69.803	0.00370645
70.1131	0.0135036
70.3358	0.0245743
70.7552	10.1797
70.9865	9.56315
71.1489	0.0233469
71.3557	9.48426
71.4353	0.00278044
71.4958	0.00934313
71.624	0.0577109
71.7478	0.0124293
71.9554	0.0189435
72.4058	0.00256761
72.7191	0.00702021
72.7993	0.00488697
73.0316	0.0999046
73.2508	0.0168061
73.3563	0.0241701
73.7492	0.0122394
74.1553	0.00268624
74.704	0.00381243
74.9801	0.00117304
75.1233	0.0225126
75.2089	0.00534871
75.3295	0.00352505
75.4138	0.0311994
75.5031	0.00502777
75.7186	8.58911
75.8552	8.62629
76.1373	0.0063395
76.5471	0.0869684
76.7244	0.00216524
76.7882	0.0789292
76.9162	0.0124849
77.0292	0.0114872
77.1261	0.00837776
77.2276	0.0407987
77.4018	0.0214615
77.5184	0.013414
77.5997	1.496
77.827	1.19931
78.1042	0.0398471
78.3018	0.00979436
78.5421	0.00652125
78.6158	0.00107087
78.7399	0.00883266
78.7784	0.967947
78.8206	1.03523
78.9325	0.0170667
78.979	0.00614723
79.0474	0.00242264
79.1458	0.0460298
79.2657	0.00217908
79.3228	0.0339372
79.4314	0.00504604
79.5922	0.024386
79.6542	0.0515897
79.6879	0.00585529
79.8841	0.00749656
79.9316	0.0243706
79.9715	0.0151758
80.2644	0.00535031
80.4966	0.00180144
80.9537	0.00629164
81.2125	0.0106685
81.4137	0.02984
81.5486	0.00474167
81.8703	0.00109056
82.0332	0.00897535
82.2449	0.0156113
82.348	0.021141
82.3977	0.00297696
82.4564	0.0620544
82.5278	0.00184434
82.6129	0.00753626
82.6856	0.00473745
82.8572	0.0115717
82.9735	2.28396
83.2465	2.42069
83.3606	2.2837
83.5998	0.00185224
83.7444	0.00854049
83.863	0.00170112
83.9689	0.00813809
84.1642	0.0201212
84.1961	0.00895454
84.3424	0.00745362
84.5608	0.00169887
84.6964	4.26427
84.8684	0.00501624
85.0202	0.00991231
85.1449	4.12632
85.2685	6.70364
85.3486	7.02154
85.4282	3.83895
85.5919	0.0126747
85.6872	4.27323
85.8336	0.00274059
85.952	0.0372058
85.9852	0.0106705
86.0555	6.64418
86.1189	0.00466237
86.2645	0.00388
86.4489	3.64287
86.611	0.00460684
86.8523	0.014653
86.9035	3.22665
87.0263	0.0015498
87.1404	0.00215258
87.3447	0.0134834
87.5899	0.0013573
87.7787	0.00191646
87.9693	0.00571119
88.1904	0.0218275
88.3472	0.0041566
88.4649	0.0105627
88.8303	0.00648838
88.9742	0.00418032
89.1639	0.00186647
89.4571	0.0154267
89.5207	0.0187892
89.6659	0.0072085
89.7102	22.5878
89.9374	0.00794158
89.9447	0.00873735

File: Mn19Fe17O48.xy
# 2-theta (degrees)	Intensity
2.93748	0.050134
11.7693	0.0094913
16.6753	0.282479
16.9308	0.15052
17.6852	0.0194385
18.8324	0.0330701
18.9069	0.00537381
20.4589	0.00904298
22.2497	0.0275043
22.3356	0.00697273
24.385	0.00769169
26.6062	0.0124729
26.6945	0.0630271
29.0455	54.7906
29.1137	54.0594
29.2089	0.00344299
29.7031	0.0205417
31.4048	0.00632531
31.5988	0.0374396
32.674	0.0744939
32.7762	0.00743917
33.7816	0.0843887
34.1554	0.0216266
34.1957	51.9349
34.2604	90.5342
34.2791	0.0184592
34.9045	0.0136225
35.7908	0.00514237
35.8489	26.0097
36.8488	0.00486723
36.9479	0.0226265
37.7458	0.0050442
38.9275	0.0150632
39.7462	0.00272292
39.7948	0.0158078
39.8959	0.0380162
41.4725	0.00664475
41.6433	0.0164916
42.0895	0.0036976
42.6448	0.0108125
43.4646	0.0086412
44.4034	0.0230843
45.1203	0.0592827
45.1863	0.00878317
45.3987	0.00127621
45.4685	0.588938
45.5117	0.068294
45.5792	0.189112
45.9977	0.00453165
46.0941	0.0351719
46.7181	0.00439661
46.8091	0.188801
46.8347	0.00164788
47.6743	0.0121071
47.7586	0.031656
48.4956	0.0195348
48.7377	0.0488365
49.3669	0.0235171
50.0197	0.0295046
50.123	0.00159907
51.4427	3.86185
51.5399	9.2138
51.5864	9.68021
51.6121	4.39424
51.8052	0.0111062
51.9673	0.0186958
52.28	0.0480789
52.4168	0.00531724
52.9246	0.0043033
53.0817	0.00397824
53.209	0.0255851
53.8638	0.0437933
54.6021	0.0352635
54.7045	0.0224354
54.7684	7.67772
54.893	16.7405
54.9508	7.59056
54.9865	15.2329
55.9476	0.0117989
56.7485	0.0245508
56.9092	0.0028278
57.4239	0.0269064
57.5021	0.0100332
57.5423	0.0479442
57.7705	0.00663888
57.8908	0.00511775
58.9146	0.0181674
58.9522	0.0303353
60.1464	43.4403
60.28	0.00710332
60.3591	43.8554
60.4461	0.0855767
60.6318	0.0282092
61.0042	0.00228149
61.0864	0.0177006
61.1284	0.037325
62.229	0.00366978
62.4399	0.060772
62.8916	0.00898254
62.9935	0.00167316
63.0859	0.0175168
63.1816	0.00298014
63.2227	1.3955
63.2661	0.574128
63.3468	0.0202815
63.4134	0.98946
63.4295	1.98742
63.6834	0.030346
63.8493	0.0155694
64.2809	0.0108415
64.3069	0.0168131
64.3858	0.0365251
64.4362	0.0113595
64.9322	0.0105502
65.1259	0.0247548
65.19	0.00726264
65.6909	0.0231337
65.8379	0.00852519
65.9502	0.00482157
66.0649	0.0080352
66.3955	0.00144968
66.5159	0.0239658
67.0969	0.00347886
67.1616	0.00196635
67.7275	0.00300944
68.1964	2.98005
68.3306	3.03032
68.3791	3.36908
68.4678	0.00549008
68.6732	0.00236319
68.8927	0.0119769
69.4637	0.00169623
69.6856	0.0215279
69.7674	0.0102316
70.7385	0.00504652
70.8044	0.00687553
70.9904	0.0132818
71.0299	0.0420601
71.1387	0.00206443
71.2351	10.396
71.2876	9.32013
71.6382	0.00148767
72.0317	2.78622
72.1847	4.55773
72.2288	0.0102078
72.6358	0.00605215
72.8912	0.0216971
72.9489	0.00648289
73.5034	0.0450242
73.7427	0.0209914
74.1599	0.0149965
74.5519	0.00545512
74.6871	0.00161941
74.7575	0.00163639
75.323	0.026029
75.84	0.00210011
75.9338	0.0054496
76.0825	0.0344696
76.2888	0.00687354
76.4886	0.00855644
76.7025	0.00426808
77.1678	0.00774974
78.2322	0.00441529
78.3172	0.00120207
78.3771	0.00690258
78.4328	0.00871512
78.4753	0.0102851
78.5334	0.892173
78.5632	0.0733582
78.6309	0.0414263
78.6541	0.0144573
78.7606	0.00240416
78.7853	0.776088
78.7874	0.00334565
78.9581	0.00670373
79.4147	0.0183475
79.5803	0.00789025
79.7013	0.00317352
79.7788	0.0144787
80.2058	0.0542922
80.3828	0.0228208
80.6405	0.00128599
80.9415	0.0762316
81.0566	0.0107185
81.455	0.0214624
81.8975	0.00539984
82.0033	0.00255819
82.0587	0.00362626
82.1773	0.00473526
82.2085	0.00237789
82.5975	0.00542622
82.8329	0.00149703
83.0252	2.72509
83.1254	0.00120985
83.2076	0.0157352
83.2923	2.15016
83.3342	2.24094
83.365	2.16752
83.4061	0.00227752
83.6287	0.00294178
83.7807	0.00364555
83.9389	0.00103464
84.0422	0.0125224
84.5284	0.00526615
84.6303	0.00140726
85.2045	0.0166517
85.7069	6.40995
85.7699	0.00343941
85.8135	0.0136586
85.8634	0.00897111
85.9293	0.00110651
85.9956	0.00176804
86.0308	4.03611
86.0589	0.0022289
86.0693	4.65368
86.0924	0.00447807
86.8536	0.00207609
86.9952	0.00669388
87.0674	0.00176648
87.5	0.00916285
87.646	0.00703021
87.997	0.00657416
88.1329	0.00699005
88.2798	0.0265071
88.8663	0.00279092
89.0934	0.00454545
89.2317	0.00105857
89.3239	0.00234756
89.409	0.00227012
89.4854	0.0116104
89.9575	0.0193102

File: Mn23FeO32.xy
# 2-theta (degrees)	Intensity
8.80467	0.0529244
14.0982	0.0262599
15.88	0.057271
17.3977	0.00554522
17.6653	30.4519
21.221	0.011905
21.5363	0.00109824
21.9076	0.026708
23.7744	0.00798901
24.6363	0.052885
26.627	0.00338949
27.5955	0.0198699
28.4156	48.7916
28.905	0.0173391
30.1943	41.5577
30.3754	0.0239808
30.4504	0.00110045
30.6925	0.044255
31.5381	0.00125831
32.0698	97.9036
32.6797	0.0500915
33.8804	0.0812894
34.2902	0.0017357
35.1591	67.5703
35.206	69.5957
35.2322	69.8626
35.7617	18.1811
36.1987	0.00106168
37.2006	0.0201086
37.9041	94.4222
38.3191	0.00930764
38.3339	0.0100594
39.2785	0.00564639
39.4361	0.0160846
40.0071	0.00997749
40.6397	0.00367652
40.735	0.0104122
43.2024	0.00441196
43.2642	58.7122
43.4238	0.00203389
43.5919	0.0616024
43.6315	0.00173788
44.5573	0.148051
44.625	0.191496
44.6716	0.199085
45.161	0.00207443
45.2573	0.00355343
45.6771	0.0063292
46.013	0.00773143
46.2989	0.0027791
46.9209	0.00362156
46.9616	0.00467973
47.067	0.0401037
48.6507	0.00163297
48.6829	0.00353079
48.8425	0.00359848
48.9135	0.00266807
49.1354	8.48113
49.2222	0.021138
49.5848	0.00102135
50.4716	31.9201
51.1352	0.00263574
51.2535	0.01294
51.4386	0.00588951
51.5097	0.00755193
51.5453	0.00581868
52.5413	7.325
52.588	7.17126
52.9094	0.00344574
53.6308	0.062399
53.6794	0.00424576
53.9537	0.00543926
54.0013	0.00174159
54.5022	0.00931647
54.8577	12.1076
55.2638	0.00386905
55.3394	0.00327244
55.769	0.00494476
55.9836	0.0312084
56.333	0.00149364
56.8952	22.3687
56.9341	22.7174
56.984	22.78
58.3088	0.00588825
58.4057	0.00438701
58.552	0.00531062
58.587	0.0055527
58.7491	78.5952
58.8806	78.4021
59.419	0.0149202
59.8882	0.60745
59.9371	0.350256
60.0199	0.584878
60.0468	0.00338178
60.5299	0.0107038
60.5788	0.0282199
60.6572	0.0128962
60.8522	0.00550269
61.4016	0.00249606
62.7657	0.00221589
62.787	61.316
62.8215	3.83794
62.8362	0.00126096
63.1651	0.00659253
63.2813	0.025124
63.3446	0.0315666
63.5672	0.0013648
63.802	0.00544775
63.8839	0.79993
63.9235	0.754946
63.9704	0.733274
65.1243	0.00712547
65.2679	0.00119088
65.7969	0.557347
65.8311	0.535892
66.0796	0.0365548
66.1934	0.0651764
66.9815	4.04303
67.008	0.00617882
67.0835	4.23065
67.1521	0.00191718
67.1731	0.0129166
67.4082	0.0125191
67.4417	0.012699
67.6199	0.0120355
68.4247	0.00498807
68.5025	0.00233775
68.5522	0.0016922
68.6005	7.92957
68.6341	0.00127802
69.249	0.00479718
69.541	0.00404687
70.3312	0.00709296
70.4222	2.54011
71.2148	2.30861
71.288	0.167962
71.3424	0.0995257
71.5278	0.00351868
72.1981	8.04131
72.3021	7.74593
72.3299	7.66424
72.5217	0.00157993
72.6507	0.0142696
72.7664	0.00114737
73.3357	0.00114931
73.4147	0.0134592
73.623	0.00144535
74.3223	3.44885
74.4347	3.65365
74.4974	3.64838
75.2603	0.00421522
75.4376	0.00353901
75.6105	0.00321276
75.7698	7.20784
75.8463	7.23206
76.2142	0.00122089
76.5727	0.00841519
76.6157	0.824266
76.6763	0.808839
76.756	0.00282997
76.8421	0.874624
77.2559	0.00821767
77.4755	0.00434559
77.6211	0.00351416
78.6281	0.00570944
78.7063	0.0031768
79.2319	2.01196
79.299	4.44233
79.3305	2.19274
79.3563	4.13233
79.396	0.00703229
79.4325	4.38982
79.4631	0.00684852
79.484	0.00103985
79.5865	0.00349897
79.7255	0.00272025
81.0159	26.7327
81.1374	0.00288142
81.2907	0.0153669
81.5039	0.00223038
81.9695	0.00432621
82.0197	0.0136613
82.0649	0.023792
82.0889	0.0039337
82.2229	0.00304574
83.199	0.00312052
83.2499	0.00120764
83.3515	0.00391806
83.4162	0.00113269
83.5146	1.99613
83.5398	0.00364796
83.6734	1.93506
83.7612	1.98192
84.0665	0.00283102
84.2107	0.00608402
84.496	0.00371038
84.6357	0.00830588
84.6625	0.00835606
84.697	5.46677
85.0614	0.001362
85.2773	0.00242653
85.883	0.00133829
85.941	0.00136483
86.1678	1.70267
86.3002	1.70986
86.3241	1.70513
86.3397	1.66762
86.6283	0.00606341
87.1363	0.0136654
87.2212	0.00551344
87.257	0.00130266
87.3859	0.0015418
87.4525	0.00301238
87.763	0.00295332
87.798	0.0232829
87.922	0.00655586
88.0129	3.02662
88.1224	3.01289
88.1438	2.99326
88.1855	5.7767
88.5638	0.00143294
88.8441	1.50796
89.033	0.00379606
89.3241	0.00198512
89.3694	0.0050986
89.4585	0.00162964
89.7099	0.00171581
89.7997	0.00188942
89.8368	2.73261
89.8997	2.77619
89.9288	2.869