Folder: XRD_mixture/xy_files (part 5)

File: MgMnO2.xy
# 2-theta (degrees)	Intensity
17.0124	0.761679
18.6906	29.7894
23.8731	11.3212
30.7119	9.02383
33.6115	13.5096
33.6616	22.5352
33.8637	23.1859
34.4149	24.6588
34.7275	22.6228
34.7762	51.0876
37.903	7.42409
37.9481	17.0585
38.4484	0.0367822
42.7473	49.2606
42.7882	100.0
45.646	0.165033
45.8935	8.15531
46.787	4.72928
48.4575	3.06628
48.8695	19.3566
48.9063	31.618
52.2017	0.115006
52.5205	1.90334
52.6866	0.321716
54.5449	5.00124
55.641	1.32654
55.9912	14.7328
56.0247	31.1747
57.8661	0.00796462
58.3071	0.0562852
60.1357	44.4655
60.2317	22.4158
60.8559	0.147904
61.2951	1.98114
62.9873	0.054886
63.0807	0.0375152
63.3339	0.0507005
63.6562	1.74907
63.9609	1.84068
63.9918	3.88619
64.3137	2.15996
65.0288	0.614867
65.7362	1.05397
66.4537	0.0408271
69.1305	1.3159
69.4923	0.0284302
70.6559	1.06988
70.7734	2.95336
71.1608	13.6408
71.2487	6.69548
71.3188	3.50815
71.4359	5.67489
71.7534	1.14527
72.5505	11.3719
72.7363	3.84616
72.7654	8.91332
73.2927	0.643996
73.4085	1.07483
73.7599	0.0032281
75.0445	0.124298
76.5389	7.28447
76.653	13.8767
76.7031	1.00298
77.0291	0.00482363
78.7889	0.585776
79.56	1.5746
79.9802	0.0407337
80.1602	0.978294
80.6998	0.555891
81.0132	2.26906
81.1255	7.26084
82.3758	1.89035
82.4038	3.15198
83.7206	0.0366675
83.8629	1.09727
84.0235	0.316709
84.1072	0.14601
84.9639	0.0136735
85.6092	2.38504
85.8657	0.440165
86.5102	0.647441
86.6893	3.97272
86.8004	7.10613
88.2619	0.00148775
88.7474	0.0229793
89.6104	0.143533

File: MgMnO3.xy
# 2-theta (degrees)	Intensity
23.8191	70.4551
33.9372	100
41.8859	2.64743
48.7535	64.498
54.9616	20.8269
60.7284	36.0244
71.4217	33.5872
76.5011	8.07622
81.4744	14.9186
86.3836	0.146805

File: MgO.xy
# 2-theta (degrees)	Intensity
10.5659	100.0
18.353	9.41436
21.2229	4.05025
28.1988	16.7058
32.0697	1.12238
35.5551	5.79172
37.1993	10.9583
38.7777	0.166184
43.1995	14.392
43.2211	5.34412
44.6006	4.52159
44.6163	1.03505
47.304	1.25359
47.3241	0.555287
48.6121	0.720631
49.9137	17.9952
52.3897	4.8304
52.4037	0.206798
54.8039	0.406104
54.8174	0.00420439
54.8219	4.38306
57.1658	3.8887
58.2973	4.93371
58.3147	0.360499
59.4323	0.0769253
61.6805	0.798283
62.7618	2.97854
62.7743	0.716656
65.9944	0.352395
66.0066	0.0277974
67.0696	0.522642
68.1045	12.1641
68.1204	0.399667
70.1995	1.6449
72.2362	3.3427
72.2478	0.881017
74.2461	1.28074
74.2653	3.12423
74.2806	0.222408
75.2721	0.292026
78.2663	0.706653
78.2776	0.786507
79.2718	0.417223
80.2253	0.261457
80.259	0.307631
83.1895	0.516861
83.2043	0.382305
84.1669	0.404361
84.178	0.0459545
86.0984	0.0677331
86.1169	1.71862
87.1012	1.06122
88.0772	1.04016

File: Mn2FeO4.xy
# 2-theta (degrees)	Intensity
17.8378	21.9425
28.538	25.6564
28.6623	25.3065
30.7442	21.3403
31.9585	100.0
35.6666	68.0188
35.8701	67.7292
36.1272	16.842
37.5324	22.7303
43.8635	13.0986
44.2058	12.8336
44.8522	0.088495
45.0207	0.111546
47.8678	0.0180815
49.2721	9.57505
50.1006	32.5527
53.2407	7.5797
53.4631	7.46113
55.4345	12.734
57.7634	21.2003
58.1844	20.5141
59.0692	39.4187
59.3463	38.8662
59.8717	0.40079
60.0092	0.421828
62.3209	2.11897
62.3881	2.12501
63.691	0.0132646
63.8899	0.0117385
64.0343	29.3765
64.5374	0.573511
64.9321	0.541503
66.8133	3.96085
66.9312	0.39949
67.1896	0.360555
67.2889	0.0229958
68.8779	8.21875
70.6733	0.0654412
71.3077	1.37442
71.872	1.34802
72.4557	1.25856
72.9541	1.23199
73.2413	7.62823
73.4897	7.41218
75.5405	3.14454
76.0314	3.04728
76.6534	6.54058
77.1188	0.639107
77.4847	0.618326
78.9625	4.57746
79.0837	4.59727
79.3696	2.30927
79.5511	2.30448
80.0938	7.06311
83.4018	0.00739576
83.761	0.550854
84.12	0.0122568
84.5802	2.01688
85.0581	1.98865
85.3338	5.76647
85.5725	5.6401
87.1414	0.0110021
87.8609	1.77712
88.1585	1.75535
88.1952	1.70009
89.3462	3.19381
89.7032	5.51076

File: Mn2FeO6.xy
# 2-theta (degrees)	Intensity
18.0637	100.0
19.997	0.00270085
22.0227	0.0126522
27.0735	0.00309915
34.0591	0.0253079
35.1431	5.98968
36.2488	26.0662
36.3516	1.80926
36.5969	3.29958
39.6918	7.27746
39.7869	13.7685
40.6377	0.0305012
40.762	0.0195638
42.05	0.0107067
44.8012	0.0220049
44.9162	0.00849181
44.9372	26.7052
45.0232	2.35894
50.8532	0.0163185
51.5649	1.2273
51.6425	10.8128
54.791	0.00533172
55.5769	0.00166312
55.6506	0.00356848
55.7733	0.00950665
56.192	0.90474
58.107	0.00996981
58.1786	0.00903211
58.2978	0.004365
59.2874	14.5662
59.3582	0.00444383
60.2562	0.0020728
62.2468	0.00720251
62.3613	0.00457906
62.7807	4.26435
63.7754	14.3056
65.9139	4.44478
67.6371	0.00166011
67.7029	0.00622208
67.8124	0.00107861
67.9639	0.263767
68.0295	4.33599
69.921	4.20074
70.3919	0.00475951
74.0312	1.3543
74.2841	0.694431
74.5294	0.0013176
74.7642	0.218914
74.9153	0.937929
75.0162	0.113599
76.9485	3.46703
77.1981	1.73383
77.5841	4.70416
77.6464	0.24316
77.7956	1.16475
78.2545	0.00133659
78.4201	0.00129313
80.4099	0.00384291
80.5482	0.46814
80.5743	0.00151477
80.7948	0.243215
81.5952	1.09321
82.2973	0.00126825
82.3586	0.00407885
83.9734	0.00707095
84.2791	0.00158906
85.5285	4.16181
85.7724	2.03131
87.9729	0.00163207
88.2707	0.376994
88.3315	1.28926
88.9264	0.00160897
89.2088	0.555639
89.2306	0.00191881

File: Mn2O3.xy
# 2-theta (degrees)	Intensity
18.4419	0.323281
18.4864	0.28832
20.6513	0.0165268
22.6464	5.49891
22.6738	5.21077
26.2278	0.0379858
27.827	0.0223451
27.8496	0.31724
30.8348	0.00223016
33.5849	0.00708022
33.6392	0.00241745
34.902	0.304631
34.9204	0.160004
34.9477	0.309359
37.3951	5.78775
38.5855	0.014595
38.605	0.0215952
38.6332	0.00985142
39.7508	0.513295
39.8333	0.543803
40.9356	0.02352
42.0029	0.192199
42.0239	0.166461
42.0798	0.170057
43.0959	0.0144006
43.1643	0.00671107
44.1732	3.28622
44.1984	3.2203
46.2502	0.507459
47.2409	0.168637
48.2358	2.15128
48.2693	2.31273
48.3023	2.07583
49.2231	0.00229356
51.144	0.0152634
51.1523	0.00967255
51.1702	0.013255
51.2342	0.00516177
52.0772	0.632377
52.0906	0.396179
52.1736	0.619865
53.9724	13.713
54.8201	0.0143461
54.8375	0.0252115
54.8847	0.117935
55.7493	0.663433
56.5975	0.0170121
56.6274	0.00990109
56.6987	0.0125535
57.483	0.154606
57.5345	0.074716
57.616	0.127741
58.4834	0.00569525
59.2151	0.337338
59.2226	0.0949799
59.2431	0.294888
59.3011	0.130846
60.8945	0.134642
60.9092	0.369438
61.0376	0.105972
61.7371	0.00416912
61.7477	0.00283119
61.7993	0.0171333
61.8311	0.0289302
61.8768	0.00245018
62.5785	1.36367
62.638	1.0897
62.6696	1.41975
63.4914	0.00991475
64.2406	7.34069
65.0457	0.00120456
65.058	0.00160642
65.0963	0.0097321
65.8398	0.906112
65.8671	1.11098
65.9712	0.848151
67.5026	3.44412
68.2649	0.0325759
68.3671	0.0140986
69.0598	0.204806
69.0831	0.122793
69.1171	0.194801
69.809	0.00218368
69.8989	0.00148448
69.9888	0.00245465
70.602	0.549248
70.6617	0.0689822
70.7277	0.525458
71.4004	0.0238709
71.4988	0.005004
71.5467	0.0298295
72.1545	0.0651099
72.1647	0.0467208
72.1764	0.171121
72.2334	0.0600962
72.2762	0.172384
72.3221	0.0883892
73.7083	0.087848
73.7523	0.421091
73.8172	0.0735063
74.4786	0.00107147
74.5416	0.00872016
75.9727	0.00817613
75.9984	0.00557909
76.0182	0.00247652
76.0663	0.00216575
77.4918	0.0147871
77.5242	0.012066
77.5671	0.00452761
77.6133	0.004071
78.2433	0.186108
78.2478	0.287006
78.2639	0.0700589
78.3197	0.295661
78.3593	0.186032
78.4072	0.0194387
79.7284	1.16392
79.9572	1.16662
80.4816	0.00518868
80.5012	0.0934461
80.5521	0.0149966
80.579	0.00775072
80.6499	0.00262496
81.2242	0.806206
81.2437	0.199916
81.2776	0.200516
81.2971	0.155996
81.3194	0.0622505
81.4012	0.210902
82.0157	0.00107587
82.7077	0.452472
82.732	0.206137
82.7693	0.126647
82.8402	0.117027
82.9347	0.188712
83.4811	0.00337115
83.6222	0.00885132
84.2289	0.451804
84.2791	0.394731
84.318	0.439202
85.6785	0.0113498
85.7039	0.474366
85.8056	0.0158736
86.4194	0.00262317
86.5288	0.0183406
86.6307	0.0280512
87.1675	0.197459
87.1764	0.188297
87.1957	0.17983
87.2143	0.145305
87.3173	0.186847
87.3673	0.194819
87.963	0.00322997
88.0475	0.0052181
88.639	1.86514
88.7517	1.89305
89.3795	0.00865936
89.4126	0.00171684
89.4487	0.0017765
89.5731	0.00338882
89.5751	0.0215441

File: Mn3Fe5O12.xy
# 2-theta (degrees)	Intensity
12.9446	0.0215697
13.1364	6.51812
18.5809	0.181966
22.5499	0.265253
22.7484	5.37687
22.8179	0.0450449
22.912	0.0341564
26.2798	0.0142238
26.461	0.0226905
29.3105	0.637327
29.5542	0.691091
29.5808	3.26891
29.6826	0.0120631
32.5052	0.141948
34.7058	1.22515
34.8289	0.442418
34.9849	0.0499295
35.0373	0.0120438
35.1241	0.551918
35.1779	0.0426748
35.2647	0.0895934
35.3141	0.426276
37.717	3.90995
39.5476	0.396485
39.8604	0.183067
39.9214	0.296039
40.0613	0.140699
40.1387	0.379381
40.1999	0.00445679
41.9691	7.43766
42.2659	0.291899
42.3084	0.0490367
42.4974	0.0519183
44.1008	0.00345926
44.2919	0.544717
44.5603	0.0109451
46.0003	0.0057093
46.3138	0.70083
46.4824	0.221697
46.7078	0.0902338
47.9181	0.0454774
48.0523	0.00287414
48.1153	0.13099
48.2591	0.0274785
48.4217	0.0117617
48.4675	0.540417
48.5823	0.215489
48.6289	0.18448
48.6408	1.01025
48.6554	0.443815
48.763	0.479769
48.814	0.112889
51.8773	0.0611877
52.1499	0.426828
52.2755	0.448706
52.3815	0.00306312
52.4765	0.265351
52.545	0.416627
52.6565	0.410895
53.6018	7.1185
54.2836	6.51211
55.2993	0.0366679
55.6024	0.668062
55.7266	0.0817003
55.8398	0.202534
56.0938	0.427018
56.1523	0.00373248
56.2627	0.509501
56.3378	0.230833
57.2007	4.27817
57.4407	0.0354388
57.7638	1.21749
57.9459	0.592897
58.0351	2.63516
58.8405	0.00418663
58.9034	0.110916
59.0965	0.0145807
59.2223	0.100382
59.4437	0.33962
59.4837	0.150867
59.5752	0.324601
59.6793	0.602156
59.7316	0.0622491
59.7922	0.293993
59.8652	0.0861925
59.9743	0.0698849
60.7963	0.0497944
61.3434	0.0520921
61.4032	0.130528
61.6324	0.112124
62.2926	0.182028
62.5764	0.240929
62.7874	0.265085
62.9169	0.260126
63.0682	0.276871
63.1201	0.273381
63.2899	0.383914
63.3439	0.303936
64.3351	0.0358943
64.4805	0.00402516
64.7788	0.696876
65.3485	0.0705
65.6722	0.301702
65.9362	0.0210492
66.2125	0.359315
66.2567	0.220673
66.3383	0.137464
66.444	0.0656805
66.6205	0.0389606
67.3237	1.1138
68.2463	0.57759
68.6992	0.0069627
68.8276	0.0025072
68.9252	0.0888319
69.0477	0.0532463
69.1707	0.0527523
69.2668	0.00163565
69.5267	0.0703677
69.6005	0.109441
69.661	0.0466982
69.6819	0.0550882
69.7485	0.071695
69.7654	0.026293
69.8958	0.0623701
70.0564	0.23056
70.665	0.0124836
71.1093	0.00998761
71.3329	0.395871
71.6635	0.109488
71.7615	0.00269
71.8366	0.0424254
72.1494	0.0357278
72.2963	0.167518
72.3447	0.16763
72.4073	0.125963
72.5891	0.0265975
72.687	0.0442282
72.7247	0.127724
72.8019	0.118389
72.8525	0.0542184
72.911	0.0182355
72.9839	0.00294045
73.014	0.00813805
73.1459	0.00124913
73.4716	0.0241408
73.5734	0.0913064
73.9907	0.1289
74.114	0.130947
74.2512	0.0299839
74.3868	0.633671
74.5753	0.011298
74.6777	0.184881
75.1363	0.0625472
75.7993	0.0961936
75.977	0.104525
77.6884	0.035211
77.8405	0.0986411
77.8921	0.0753741
78.2903	0.111803
78.4752	0.035811
78.5182	0.11415
78.6297	0.0328281
78.6835	0.0804507
78.7245	0.128627
78.7874	0.0871916
78.9473	0.0572221
78.9823	0.0161824
79.0818	0.0552529
79.1857	0.0468361
79.2232	0.105114
79.2961	0.0401225
80.4447	1.0368
80.5998	0.0510951
81.0559	0.129051
81.1143	0.0322329
81.1794	0.048057
81.3675	0.057173
81.687	0.0667469
81.7272	0.0109322
81.8264	0.0616544
81.9312	0.127444
81.9835	0.0869211
82.0294	0.105465
82.068	0.0528357
82.109	0.184886
82.2402	0.126956
82.3125	0.0474107
82.379	0.050666
82.5126	0.906377
82.8267	0.779349
83.0422	0.196759
83.4959	0.0591853
83.5198	0.17211
83.638	0.398772
83.7577	0.127706
83.8582	0.0858316
84.0091	0.0278804
84.3405	0.0384458
84.5909	0.141761
84.8867	0.0285691
85.0771	0.165164
85.1303	0.0135761
85.1836	0.0778965
85.364	0.0825926
85.891	0.0108712
85.9984	0.00194865
86.4545	0.0254668
86.5154	0.509083
86.6733	0.0371695
86.7242	0.0170816
86.8329	0.036956
87.0194	0.0836357
87.2164	0.0395877
87.281	0.00158989
87.4958	0.0651713
87.6068	0.0189952
87.672	0.0223122
87.7839	0.0743213
87.8414	0.00571395
87.8814	0.0503264
87.9564	0.0523422
88.0255	0.0351511
88.0799	0.0735199
88.1849	0.045201
88.2405	0.121128
88.32	0.0260075
88.4444	0.069153
88.7367	0.195918
89.3084	0.0489099
89.4734	0.0258447
89.7385	0.0176907
89.8802	0.0912973
89.9649	0.0420993

File: Mn3FeO8.xy
# 2-theta (degrees)	Intensity
18.4686	0.00193624
18.7609	100.0
21.4421	0.0135545
30.3218	0.011841
30.6895	0.00346013
35.7375	35.4669
35.897	0.0147496
36.2141	0.0247467
37.44	6.57162
38.0498	3.00301
43.6849	49.9056
47.5533	0.0514219
47.9316	9.12561
48.3076	0.00921763
48.9138	0.0108346
49.4072	0.00571373
53.8706	0.00216917
54.1014	0.0126833
54.7897	0.00552134
57.5557	0.0240846
58.107	15.016
58.5456	1.06534
63.0757	14.5072
63.91	11.3763
66.4417	14.3571
67.3548	0.00218982
67.4431	0.00118187
67.8467	0.00591841
68.6506	0.00291539
71.7744	0.00143746
74.6619	3.50156
74.952	0.00408313
75.7115	1.14829
76.0964	2.83167
76.8643	1.96699
79.8653	6.22645
81.3788	1.36329
82.6623	0.00372226
82.9445	1.79082
83.2265	0.00334198
83.6023	0.00343702
84.0716	5.23728
87.5686	0.00138587
88.3157	0.00270214
89.2491	0.00109593

File: Mn4FeO5.xy
# 2-theta (degrees)	Intensity
8.00789	1.54182
16.0552	0.185436
24.1832	0.00511231
28.4233	0.0320383
30.6887	0.00721261
32.4369	0.385491
34.8201	91.7575
40.2009	100.0
40.32	0.284643
40.8677	46.662
41.0589	0.128708
43.5493	0.0583951
46.809	0.0231906
47.4661	0.00110351
49.5367	0.312554
52.5717	0.31766
54.0611	0.00351862
58.1585	29.091
58.5203	0.0407858
58.6672	55.4843
58.8138	0.0406055
60.7535	0.0197321
61.9716	0.122539
65.6225	0.473695
65.9818	0.00627113
67.1994	0.0015015
67.9182	0.00103751
68.1885	0.125931
69.6032	24.0278
70.5251	11.2949
73.1412	0.100203
73.3824	0.074163
73.5132	25.6681
77.7601	0.0122658
77.8682	0.122965
79.783	0.171025
79.8322	0.250488
81.9686	0.00205729
83.4256	0.00136642
86.8389	8.04158
87.1473	0.0446865
87.3983	0.0118638
88.5737	3.58458
89.0753	0.00612113
89.8936	0.0128586

File: Mn5(FeO3)4.xy
# 2-theta (degrees)	Intensity
6.78899	0.712224
14.8764	0.491612
17.6532	48.0882
17.7872	35.2364
20.5866	0.00629359
21.6443	0.0882863
22.3829	0.340005
24.6265	0.026046
24.8554	0.0202585
28.0286	0.0505058
29.059	54.992
29.1532	51.7701
29.913	0.031164
32.1968	0.0571053
32.4194	0.200069
32.8603	0.0478155
32.9876	0.0267436
34.1664	92.7018
34.3117	85.08
34.3209	84.171
34.3837	91.3973
34.4413	0.151708
34.5337	91.1152
35.8718	24.5694
36.9397	0.224729
37.0707	0.17858
37.3022	0.0192535
40.3011	0.108598
40.4471	0.0692895
40.7515	0.0427666
40.8215	0.0696628
40.9038	0.0178998
40.9817	0.0230469
41.6191	82.2424
42.2114	0.00956189
42.5378	0.00371009
44.1133	0.0957171
44.5317	0.0488869
45.428	0.928699
45.5409	0.0752409
45.5966	0.00143538
45.7063	0.253805
45.8807	0.0821303
45.9207	0.0754234
46.7621	0.00270677
46.8687	0.0548184
46.9952	0.0082005
47.3277	0.0289355
47.4771	0.101432
47.607	0.00625875
47.7065	0.0658346
47.8818	0.15524
48.0256	0.22389
49.0283	0.00305398
49.1069	0.0308221
49.3427	0.0226176
50.6272	0.0312255
50.834	0.118233
50.9811	0.0186871
51.0838	0.0736995
51.2796	0.0130471
51.4728	8.29003
51.6643	8.77912
51.7307	8.59941
51.943	8.32869
53.5529	0.0257681
53.9629	0.0493259
54.0387	0.0424991
54.3198	0.0154995
54.8514	31.3519
54.943	0.00934358
55.0198	0.0881351
55.0324	29.1671
55.1005	28.3116
55.1764	0.154478
55.2357	30.3469
55.2715	0.00309937
55.4916	0.0436817
56.7415	0.0408317
56.8272	0.106827
56.9463	0.0126857
57.0387	0.0234767
57.2555	0.0601143
57.4004	0.00969002
58.1717	0.0614765
59.273	0.0206118
59.536	0.0831117
59.7678	0.0508565
59.8151	0.0143258
59.8823	0.0538556
60.2325	82.6695
60.2744	0.0377216
60.6093	82.4472
60.8037	83.3225
60.9665	0.0465355
61.1019	0.146433
62.3733	0.00968919
62.5122	0.00895362
62.6314	0.0310886
62.6996	0.0402745
62.9011	0.0364104
63.2609	0.602944
63.3956	0.945921
63.4327	0.948549
63.5199	0.9139
63.5654	0.667922
63.7063	0.62341
63.7769	1.03723
63.9659	1.03882
64.3403	0.0933422
64.4196	0.0472125
64.5865	0.05825
64.7755	0.00127257
64.8427	0.00213225
64.8856	0.0585528
65.0934	0.0215705
65.2067	0.0758209
65.3435	0.0642676
65.4391	0.0493384
65.5749	0.00165962
66.0798	0.0442514
66.2781	0.0642653
66.7305	0.0117049
67.6729	0.0145486
67.8212	0.0178446
67.8906	0.0467517
68.0175	0.0621754
68.1953	2.82118
68.3035	2.99008
68.4011	0.00445678
68.429	3.31195
68.5964	3.44045
68.8265	2.80734
68.9035	0.041618
69.1972	0.0099677
69.8325	0.00794789
70.0321	0.0593324
70.1681	0.0633905
70.2087	0.00326103
70.2587	0.028175
70.3339	0.0126997
70.4245	0.00604729
70.5709	0.00414975
70.6582	0.00636152
70.9799	8.74812
71.1716	0.0238921
71.3541	9.58597
71.4608	0.0247872
71.5063	9.36971
71.7453	0.00824909
71.7988	8.63102
72.0697	5.67996
72.314	4.52343
72.3921	4.6008
72.4822	5.65831
72.7288	0.018108
72.813	0.0513729
72.9349	0.019625
73.1403	0.0151189
74.9608	0.051471
75.2025	0.0247936
75.239	0.0195198
75.297	0.0321306
75.5473	0.00163737
75.7439	0.0124958
75.8444	0.0250311
76.103	0.048084
76.2947	0.00631596
76.3908	0.0192776
76.5184	0.0136442
76.902	0.00165485
77.7174	0.0034162
77.8948	0.0157068
77.9464	0.0309312
78.0479	0.0174592
78.2415	0.0239276
78.3273	0.00111713
78.3806	0.0454298
78.5191	0.0321028
78.5931	0.067053
78.6717	0.18941
78.7777	0.133216
78.8154	0.001557
78.8267	0.00503627
78.9427	0.0635759
79.0065	0.887797
79.1226	0.0319987
79.354	0.0436706
79.4083	0.10289
79.5405	0.00766213
79.6676	0.00331067
79.8112	0.0477994
80.0794	0.00343288
80.2029	0.0162547
80.275	0.00934087
80.3634	0.0171219
80.3991	0.00758216
80.4346	0.0121807
80.4616	0.00162954
80.6419	0.0247766
80.7081	0.00429303
80.8546	0.0178426
81.0048	0.0305215
81.2391	0.0052081
81.4197	0.0220863
81.6258	0.0098777
81.775	0.00848142
82.7318	0.00190899
82.9197	0.0878637
83.0367	0.0158203
83.1232	0.0121207
83.2114	0.0110494
83.3252	2.15522
83.4195	2.38641
83.5406	1.83389
83.5728	2.19584
83.6668	1.94086
83.837	2.1594
84.0608	2.09007
84.8032	0.00469564
84.8983	0.0618705
85.0056	0.0490129
85.1652	0.0594775
85.2232	0.00987007
85.4361	0.00415305
85.5722	0.0048479
85.7068	0.00660252
85.7763	7.64512
85.8509	3.94012
85.9341	0.023732
85.9752	3.86655
86.0582	6.77588
86.1195	0.010232
86.1819	4.19879
86.245	3.79923
86.2817	3.77577
86.3473	3.7734
86.4404	0.00883864
86.507	7.26763
86.5945	3.59902
86.7551	4.09204
86.9063	3.78244
87.2176	0.00107737
87.5309	0.0339192
87.7999	0.039746
87.8341	0.019477
87.9278	0.00498147
88.274	0.0484525
88.4264	0.0499237
88.6503	0.0174085
88.8725	0.0249915
89.8467	0.0036592
89.9382	0.0176104

File: Mn5FeO12.xy
# 2-theta (degrees)	Intensity
15.502	0.00295341
15.5639	0.00118846
18.4551	100.0
18.6116	95.9563
21.4335	0.00369288
22.5356	0.00106638
22.708	0.00228264
25.8202	0.00146512
28.6826	0.0205283
29.491	0.00193355
30.2944	0.0100949
30.4786	0.0396194
30.5062	0.0377611
30.6865	0.0300098
31.2972	0.00566561
31.4247	0.00132728
33.6896	0.00147738
34.3805	0.00710846
34.4615	0.0210047
35.7677	11.3608
35.8156	11.5175
35.879	10.6595
35.9638	11.281
36.0222	10.6788
36.0698	10.627
36.0859	0.00837427
37.412	9.18301
37.7383	8.73422
38.7514	0.00435251
39.0356	0.00578609
42.1069	0.00647428
42.5991	0.00453977
42.6126	0.0138125
42.6936	0.00295907
42.9358	0.00646912
42.9619	0.00942377
43.622	31.8899
43.6667	31.78
43.7032	31.7436
46.3749	0.0028442
46.6022	0.0011658
46.6707	0.0200732
47.5099	2.86639
47.6949	3.22805
47.7213	0.00365708
47.7328	3.27996
47.8964	2.73034
47.9341	2.7162
48.1141	3.13737
48.1679	0.00298109
49.0993	0.00280612
49.1735	0.00342269
49.6834	0.00189471
49.7703	0.00222441
49.9655	0.00138271
50.3245	0.00760011
51.2878	0.00111406
51.627	0.00364459
52.7819	0.00680013
53.0827	0.00804496
53.156	0.0164877
53.2995	0.0110862
53.4452	0.00265366
53.5948	0.0109185
53.9172	0.00366375
53.9692	0.00429892
54.3141	0.0132496
54.408	0.00469458
54.4597	0.00443636
56.7295	0.00337601
57.5104	0.860319
57.5768	5.01235
57.6091	0.0053779
57.6764	4.98972
57.7493	5.01609
57.8081	4.74478
57.8709	4.76599
57.9702	4.69083
58.0395	1.1048
58.2352	0.00245887
59.3915	0.00258481
59.4377	0.00125339
60.1857	0.00137335
60.6704	0.00286202
62.2727	0.00423948
62.5275	0.0140756
62.6467	0.00358688
63.0135	8.29093
63.4309	16.4254
63.4936	16.3893
63.9031	8.13269
63.9098	0.00112804
65.5873	0.00225701
66.2984	2.25729
66.3596	2.19689
66.5559	2.18686
66.6437	2.19186
66.6476	2.17447
66.6743	2.21076
66.8062	2.19609
66.8267	2.19472
66.8367	2.19323
66.9182	2.16318
67.1107	2.15137
67.1715	2.15048
67.3797	0.0439835
67.5746	0.0289037
67.62	0.0268739
68.0044	0.0287971
68.0497	0.028236
68.2391	0.0148914
68.9689	0.00290805
70.8392	0.00522657
70.989	0.00102063
71.3344	0.00137512
71.4	0.00228383
71.6553	0.00585031
71.7735	0.00642931
71.9628	0.0129014
72.0277	0.0128673
72.0424	0.0122987
72.0955	0.0122703
72.283	0.00642124
72.4007	0.00579253
74.7127	1.23433
74.7709	1.20252
74.8993	1.15444
75.3625	1.19072
75.4848	1.10834
75.5427	1.10677
75.7842	1.91804
75.8999	1.90029
76.0333	0.00218183
76.0529	1.87531
76.2578	1.83167
76.3986	0.00343225
76.3991	1.79438
76.5145	1.77837
76.5218	0.00192228
76.5535	0.00134566
79.3569	0.00168656
79.7962	7.18761
80.6038	7.18388
81.7811	0.00118103
82.3149	0.00129775
82.3197	0.0014989
82.4582	0.00328408
82.5741	1.80984
82.9406	0.588195
83.0373	1.81847
83.1101	0.601432
83.1221	1.81904
83.1841	0.521456
83.2342	0.585706
83.2878	1.68663
83.2913	0.526155
83.3725	1.67005
83.4607	0.523621
83.8264	1.68169
84.4422	0.00117938
84.9347	0.00117282
85.3434	0.00110043
85.4915	0.00101991
87.2877	0.00282396
87.5367	0.00545375
87.6068	0.00496538
87.6766	0.00114238
87.8164	0.00364636
87.9287	0.00407146
87.9546	0.00476366
87.9966	0.00557345
88.3527	0.00584903
88.3948	0.0055401
88.4136	0.00716503
88.5258	0.00657657
88.7311	0.0056727
88.8012	0.00561771
89.4774	0.0016081
89.7341	0.00134624

File: Mn5OF11.xy
# 2-theta (degrees)	Intensity
10.0392	76.8577
17.9179	14.4293
18.8365	50.5746
19.7354	15.7814
21.8222	66.4147
22.9268	3.53021
25.0493	3.02105
29.0067	3.56227
29.8264	0.253217
30.4357	1.93769
31.0174	93.0839
31.8128	2.24517
32.4118	7.28449
32.9621	4.58582
33.7527	1.29028
34.2801	13.4276
35.2829	32.1465
36.2937	72.8083
36.7932	15.1919
37.7464	10.7019
37.7994	0.550112
38.2075	2.85518
38.8919	0.936961
39.0925	3.68191
39.1958	3.11069
40.5632	11.2691
41.0274	0.420495
41.7122	3.99766
42.4473	1.72131
44.1368	4.54481
44.4778	5.87902
44.6304	0.38022
45.213	10.9531
45.6872	23.0496
46.4729	6.82027
47.4348	2.55509
47.5002	3.68036
47.7387	0.735089
47.9259	0.245624
48.6279	27.8358
49.2446	16.3649
49.8153	2.25105
49.8478	33.3394
50.5249	0.177422
50.6884	4.82225
50.9566	4.68792
51.3457	0.456029
51.53	2.75152
51.5839	37.8641
51.8867	0.859558
52.3392	0.648544
52.5097	1.33194
52.6409	1.32477
52.9422	4.95761
52.9899	5.07615
53.1094	2.12723
53.5649	1.45853
54.0416	1.28949
54.2568	1.58691
54.8048	3.80877
55.1306	8.73789
55.7554	2.89749
55.9437	0.0375775
57.0261	0.300538
57.4618	0.669691
57.7867	4.42033
58.029	1.77056
58.3739	0.460518
58.8021	7.02614
59.1351	0.0380768
59.4656	3.7975
59.7159	0.49414
60.1156	0.921073
60.4296	0.989269
60.5149	0.251304
60.5931	0.389739
61.3435	0.613946
61.7154	0.817333
61.8166	1.22986
61.9562	1.3099
62.5073	0.157193
62.8698	8.6884
62.9166	0.994521
62.9582	0.37234
63.2843	0.162261
63.4253	0.304988
64.0049	0.909976
64.2144	0.494579
64.4603	0.334646
64.6566	4.2272
65.3063	0.057856
65.4737	1.42184
65.7636	0.0218665
66.0413	1.16408
66.3651	0.393197
66.6097	0.525646
66.8192	1.02106
67.3995	0.505582
67.564	1.96605
67.7975	1.35532
67.86	0.112488
68.2491	1.22493
68.3594	0.860812
68.9316	0.07082
69.1009	0.603739
69.2019	1.26356
69.5425	0.529014
69.6197	2.66354
69.6655	0.189815
69.8811	1.839
70.3852	0.788974
70.4602	2.9715
70.9142	0.741701
71.2689	0.40271
71.289	0.418881
71.5924	4.09252
71.7636	1.93766
71.9639	1.05584
72.055	0.557644
72.1186	0.0421874
72.1485	1.21565
72.2207	0.475703
72.4403	1.08652
72.6397	2.46328
73.0006	0.0938204
73.1005	4.05428
73.15	0.102186
73.3123	0.0912724
73.7661	0.648125
74.0303	0.789273
74.2629	2.3768
74.5084	0.829919
74.7427	0.775036
75.1103	1.1105
75.2984	0.11135
75.5264	0.586656
75.8291	0.984877
76.111	0.351754
76.1781	2.53396
76.5854	0.143461
76.9163	0.561063
77.0347	0.0567551
77.1367	1.93412
77.5537	0.106973
78.2753	0.499519
78.3024	0.347258
78.5304	1.67369
79.0507	2.83636
79.3109	2.32773
79.6121	0.111977
79.7854	0.501356
80.1254	0.442958
80.3563	1.85395
80.4695	0.194139
80.6252	1.60146
80.7557	5.73974
80.9001	0.52869
81.1256	0.486364
81.1707	0.131431
81.2499	0.477511
81.305	0.715236
81.4241	3.86216
81.53	1.49242
81.6741	0.648427
81.8939	1.40687
82.666	0.321629
82.8027	0.588321
82.9941	0.557359
83.3797	0.144551
83.4667	2.7149
83.5107	1.52795
83.6727	1.11826
83.827	0.913514
84.0508	3.24461
84.1427	0.658743
84.2085	0.765609
84.3622	0.501817
84.9932	0.31478
85.0934	2.12631
85.5028	0.536291
85.6792	0.962426
85.7999	1.05366
85.9604	0.937086
86.2295	0.290411
86.3866	0.00509295
86.4	1.09172
86.5302	0.303605
86.7141	2.42524
86.9713	1.07664
87.2059	0.480356
87.2797	2.19197
87.6774	0.151947
87.7789	0.641299
87.8429	0.922292
88.0322	0.39646
88.0787	0.404666
88.1866	0.746674
88.4723	0.457828
88.7047	0.198837
88.7291	1.47574
88.8495	0.580064
88.952	1.42233
88.9925	0.583361
89.087	0.972244
89.1866	0.941593
89.4362	2.51662
89.8192	2.43543
89.8963	0.307819
89.9529	0.749072