Folder: XRD_mixture/xy_files (part 7)

File: Mn(FeO2)2.xy
# 2-theta (degrees)	Intensity
17.8601	42.318
17.9265	45.8631
17.9329	41.0868
18.0052	33.8289
20.5745	0.081327
20.6765	0.00126308
29.3271	50.286
29.3348	49.2384
29.433	50.1262
29.514	50.2969
29.6223	48.4094
29.687	48.4086
34.4489	85.9967
34.4816	100.0
34.5674	88.3085
34.5792	96.2178
34.61	80.5471
34.6153	86.7875
34.687	77.5755
34.7329	89.3043
34.8762	78.7303
34.9864	82.5677
34.9967	82.3889
35.1099	89.8362
36.1736	27.139
36.3117	23.3592
36.325	26.3304
36.4753	23.6925
41.8525	80.9952
42.0675	79.4891
42.6418	75.7602
45.8825	0.735284
45.9598	0.435816
45.9681	0.110625
46.0689	0.0416099
46.1353	0.752949
46.1582	0.157296
46.2513	0.0664516
46.3372	0.407792
46.4202	0.292335
46.4296	0.120913
46.5206	0.389706
47.1157	0.0255603
47.1255	0.00444494
47.126	0.0908657
47.2627	0.0453806
47.273	0.0146395
47.3797	0.0584595
47.5641	0.0377737
47.6663	0.00136646
47.7255	0.00150119
47.956	0.0356536
51.9271	8.36312
52.026	7.6784
52.069	7.49024
52.1543	7.84648
52.1777	7.87512
52.2719	7.94443
52.2758	8.72427
52.3747	7.93242
52.4032	7.77803
52.5854	8.27536
52.6052	7.87282
52.8247	7.28784
55.2576	30.2333
55.2779	30.8129
55.3937	30.6411
55.4254	24.4621
55.5092	12.4337
55.5245	32.2335
55.5471	28.9303
55.6482	26.8063
55.6822	26.5699
55.7318	13.1802
55.7533	12.4033
55.9957	15.3275
56.1671	27.4404
56.2944	28.0565
56.3063	28.8185
56.4356	26.7775
60.8333	80.8244
60.8506	81.0768
61.071	78.9836
61.2532	78.1833
61.4966	78.6921
61.6422	78.1235
63.8096	1.78849
63.8652	0.414842
63.8899	0.616611
63.9238	0.739708
63.956	0.619409
63.9719	0.87038
64.0108	0.968049
64.0341	1.63265
64.075	0.923108
64.143	0.596426
64.1685	0.471864
64.2155	0.696866
64.2737	1.3392
64.35	0.965244
64.4547	1.23749
64.4932	0.695088
64.5453	1.36216
64.5699	1.03558
64.576	1.60275
64.6713	0.990206
64.7894	0.00840683
64.8388	0.883047
64.8964	0.435573
64.9057	0.00129462
64.9598	0.685877
65.0283	1.12639
65.0776	0.0900798
65.095	0.0117578
65.1187	0.0341993
65.1465	0.0072509
65.2462	0.0305133
65.2986	0.072311
65.2998	0.0484742
65.4433	0.0489989
65.5212	0.00797188
65.6137	0.0933761
65.717	0.0465647
65.8267	0.0232772
66.1022	0.0134538
68.7591	2.58082
68.7994	2.54015
68.8115	3.40173
69.0591	3.21135
69.1076	3.10935
69.1185	2.49491
69.1197	2.75531
69.3925	3.12268
69.8935	2.88202
69.9444	2.78283
70.1913	2.62196
70.217	2.61408
71.8014	9.26275
71.959	7.7923
71.9888	7.46189
72.1545	8.69099
72.1648	9.38622
72.2807	9.83738
72.289	10.3496
72.3712	9.69672
72.5158	8.12569
72.6161	8.64394
72.6309	4.6833
72.647	9.04927
72.7086	5.78071
72.9122	4.47911
72.9402	5.0749
72.9912	7.4971
73.0133	5.27748
73.026	4.83558
73.1963	5.31544
73.3056	4.77372
73.6468	4.88412
73.9097	5.26026
73.9343	4.83646
74.2048	4.58838
76.7658	8.15334
77.1012	8.29834
77.1335	8.28518
77.4992	8.54014
79.1887	0.124134
79.2037	0.133308
79.3482	0.160682
79.3971	1.33209
79.4817	1.42717
79.4918	0.966578
79.6243	0.75823
79.6335	0.161928
79.6505	0.118708
79.7404	0.816722
79.8092	0.106006
79.8441	1.67037
79.9795	1.23986
80.0931	1.11509
80.2994	0.0133077
80.3224	0.00667974
80.3277	1.18061
80.4194	0.0388774
80.4408	0.855461
80.5046	0.00167897
80.5165	1.1369
80.6395	0.864651
80.7375	0.0451571
80.7713	0.00126517
80.888	0.0181993
80.902	0.0366464
80.9867	0.00646801
81.0543	0.127706
81.0915	0.00682071
81.2902	0.00402715
81.6577	0.00209885
81.7791	0.00421664
83.9187	2.55143
84.0641	1.83984
84.0678	1.97269
84.1034	2.23187
84.1774	2.04352
84.2245	2.16978
84.2683	2.30852
84.3383	1.99353
84.369	2.05752
84.3719	1.79142
84.5451	1.988
84.5485	1.9148
84.6153	2.24719
84.6858	1.89342
84.7982	1.88593
84.806	2.19592
84.8724	1.75459
84.9356	2.26196
85.0711	2.29461
85.0794	2.0091
85.2403	2.08956
85.3129	1.69356
85.5049	2.00457
85.6012	2.2214
86.617	4.929
86.6406	3.37924
86.6613	3.56416
86.6981	3.90039
86.7607	3.70642
86.8068	5.4009
86.8447	3.22364
86.9809	4.56886
87.0312	4.13432
87.0727	7.30505
87.0903	3.87133
87.1041	6.84962
87.1108	3.60241
87.1245	4.67278
87.1336	6.34385
87.1538	3.26311
87.1953	3.23288
87.2007	2.94624
87.2266	6.52183
87.3793	6.16843
87.4779	7.68216
87.5327	3.66202
87.5627	6.81749
87.6094	4.19517
87.6424	5.82591
87.7469	7.07198
87.9241	3.35654
87.9771	7.14984
88.0099	3.53246
88.0709	3.82917
88.1111	5.89394
88.1704	3.61123
88.4114	3.87925
88.4557	3.44152
88.5638	3.24947
88.6219	3.77581

File: MnFe4O5.xy
# 2-theta (degrees)	Intensity
17.4918	0.139612
24.4736	0.0943162
35.1475	90.1323
35.4086	0.0199733
39.7537	100.0
42.8541	39.4884
43.5151	0.023271
46.6188	0.0228389
50.7494	0.0128954
50.9439	0.00975896
56.7612	0.0110328
57.3005	0.0309476
57.4795	29.4066
59.8749	51.0369
66.4917	0.0129728
67.8935	0.00510603
68.705	0.00654103
69.1897	24.7563
73.5099	10.3349
74.2947	24.5374
74.764	0.0126901
74.9203	0.00106136
77.6476	0.00914156
78.9673	0.00416176
82.4165	0.0131844
84.3248	0.00236806
85.5358	0.00537279
85.6871	8.07859
89.6327	0.00743292

File: MnFeO2.xy
# 2-theta (degrees)	Intensity
20.126	0.115492
28.6343	0.107913
35.2507	96.1008
40.9089	50.1211
40.9403	100.0
46.0261	0.0666575
50.695	0.0506825
59.2599	57.8548
59.2839	28.8867
63.228	0.00642509
63.2741	0.0256411
67.14	0.0212649
70.8442	12.359
70.8878	24.673
74.5417	26.5277
78.1217	0.0135091
81.7071	0.0239521
88.6817	4.06635
88.764	8.11533

File: MnFeO3.xy
# 2-theta (degrees)	Intensity
18.5367	0.364952
18.5741	0.238277
18.6383	0.685725
22.7816	6.8023
22.8047	4.10496
22.8443	4.72302
26.3586	0.00660295
26.4047	0.0158901
26.4314	0.0125149
32.479	100.0
35.1077	0.314926
35.1336	0.496384
35.1344	0.190134
35.1758	0.0518802
35.2047	0.0321391
35.2202	0.152063
37.5819	5.78642
37.66	5.93301
37.7939	6.1069
39.9729	0.891479
40.0423	0.498238
40.1616	0.519376
42.235	0.278642
42.2654	0.244481
42.2881	0.102456
42.3362	0.195402
42.4097	0.155567
42.4274	0.187039
44.469	2.69464
44.5055	3.29546
44.5268	3.62064
46.532	0.710443
46.5812	0.431916
46.6657	0.525309
48.5341	2.57902
48.5619	1.82158
48.5888	2.64222
48.6483	1.73972
48.6643	1.68981
48.696	2.04856
52.3704	0.388169
52.3898	0.675926
52.4493	0.680699
52.48	0.373461
52.6042	0.511489
52.6154	0.58264
54.2583	13.3402
54.3592	12.697
54.4178	14.5051
56.1318	0.850329
56.1569	0.489423
56.2001	0.594352
57.7859	0.291301
57.8805	0.0248908
57.9125	0.0771964
57.953	0.150733
57.9951	0.101277
58.1298	0.152377
59.539	1.32892
59.5948	0.202236
59.6245	0.0984832
59.6501	0.144306
59.6599	0.969854
59.697	0.517776
59.7746	0.304373
59.7918	0.232731
59.8673	1.12458
61.2495	0.198077
61.2728	0.561345
61.3581	0.306485
61.395	0.0932713
61.5679	0.0769677
61.5815	0.253991
62.9806	0.827399
63.0107	1.6054
63.0668	1.2452
63.1469	0.993398
63.1485	1.27128
63.1986	1.05755
64.6243	6.81454
64.7297	8.24164
64.9108	7.88767
66.2481	0.961388
66.2929	1.15122
66.336	1.14115
66.4067	0.811665
66.5315	0.810668
66.5574	0.92257
68.0157	3.4918
69.5492	0.185632
69.5778	0.185934
69.5875	0.0920763
69.6383	0.20519
69.6652	0.289876
69.6875	0.111852
71.0505	0.139804
71.1135	0.555765
71.1371	0.635712
71.2504	0.0492714
71.3082	0.0513655
71.3585	0.491889
72.5858	0.820444
72.6019	0.0674913
72.6693	0.25609
72.6768	0.0237558
72.7262	0.153497
72.7516	0.683995
72.7535	0.109589
72.7894	0.0305688
72.8549	0.0715653
72.8982	0.182076
72.9834	0.914501
72.9927	0.0817408
74.1994	0.544187
74.2613	0.0132605
74.2633	0.179645
74.3623	0.322258
74.4315	0.507608
74.4686	0.0914581
78.765	0.0374738
78.7888	0.240477
78.7911	0.0964658
78.8222	0.259281
78.8864	0.046541
78.914	0.35053
78.9277	0.0157437
79.0048	0.128529
79.0202	0.161736
79.0776	0.242459
79.1211	0.00634044
79.1363	0.0451339
80.2164	0.905651
80.4098	1.43648
80.7419	1.24542
81.7325	0.682695
81.7777	0.146639
81.8552	0.213647
81.8769	0.252058
81.9221	0.758874
81.9274	0.0500717
81.974	0.0701339
81.9996	0.14867
82.0011	0.106255
82.1251	0.248827
82.1702	0.156336
82.2477	0.702912
83.2325	0.591592
83.2531	0.287027
83.399	0.280991
83.4124	0.131103
83.4451	0.375131
83.4589	0.113668
83.562	0.0787418
83.7422	0.396494
83.7542	0.176015
84.863	0.489092
84.8959	0.370312
84.9453	0.441843
85.026	0.353543
85.0347	0.486537
85.0825	0.372762
86.2504	0.732349
86.3135	0.0546634
86.4295	0.33575
86.6056	0.00491294
86.7373	0.423814
87.7294	0.179375
87.7703	0.213208
87.8151	0.166806
87.8509	0.15285
87.8933	0.191237
87.9134	0.236048
87.9581	0.178652
87.9701	0.167188
88.1183	0.226637
88.1392	0.163292
88.216	0.218564
88.2399	0.196234
89.3209	1.88537
89.4847	1.79437
89.58	2.27773

File: MnFeO4.xy
# 2-theta (degrees)	Intensity
18.581	59.8392
18.8434	19.879
21.8134	30.9306
30.3339	0.0404401
30.8539	59.3207
30.9941	58.3132
35.9527	100.0
36.3807	20.5874
36.4215	7.79654
36.563	49.4265
37.6745	0.164589
38.2221	0.417581
43.9193	10.2073
44.4719	4.78113
47.6182	3.89669
48.218	0.060328
48.5557	6.33541
48.6357	0.0214229
49.5552	13.9669
49.9337	0.124776
54.2202	11.1052
54.7818	19.0236
55.046	10.368
55.1929	0.0214284
57.9075	4.11526
57.9361	2.12559
58.403	31.696
58.784	2.48521
58.8258	7.206
58.8824	14.7653
63.1031	13.6391
64.284	48.5631
64.6035	11.6357
66.4973	0.805915
67.1646	2.5326
67.6176	2.1693
67.6205	0.390254
67.6729	1.19241
67.8672	2.8381
67.9457	3.19182
68.2926	0.066605
69.0156	0.0403264
69.0668	1.57082
69.1705	1.69608
71.9644	8.36202
72.5957	4.27142
73.0236	0.00420057
73.4013	4.04531
75.1915	10.168
75.8501	1.21506
76.2311	0.0168758
76.4937	1.4901
76.6301	4.33061
77.2689	0.205918
77.713	0.198212
80.4457	0.884925
81.8089	0.634137
82.7352	0.88031
83.4983	0.0209314
84.091	1.3135
84.1641	1.86469
84.587	1.509
84.8522	0.511808
84.9136	0.445354
84.9981	0.00931777
85.1638	0.0320843
85.6468	1.90442
87.8762	2.40718
88.6705	0.0107408
89.3204	2.2456
89.6808	9.4335
89.8969	2.32712
89.9939	2.31115

File: MnO2.xy
# 2-theta (degrees)	Intensity
19.2687	100.0
36.4777	0.485611
36.9252	21.0639
38.6709	22.5086
39.1111	2.82075
39.9377	6.00802
43.1641	5.80784
45.0851	23.2678
49.4556	21.0199
51.8765	1.37834
57.1346	0.207442
59.9568	13.132
60.2755	1.10039
65.3588	13.9433
65.9654	9.27269
68.8436	13.5868
69.1491	0.228461
75.8832	0.417837
77.2309	0.0267026
77.505	2.31978
78.5986	2.57412
78.8803	2.6389
79.416	0.40929
79.443	4.04868
81.5856	0.477992
82.9353	3.26672
84.0478	1.4193
86.1599	3.48968
86.9905	2.65701
88.0347	0.182451