Folder: XRD_mixture/xy_files (part 3)

File: MgMn2(FeO2)4.xy
# 2-theta (degrees)	Intensity
16.3313	36.6224
17.3524	0.0789183
17.7017	4.95771
18.5475	43.1564
18.9119	1.61414
20.2629	2.78577
21.4524	11.1286
26.161	16.2698
27.564	7.9737
29.4595	37.8315
29.6103	1.02593
29.7425	38.9818
29.89	27.373
30.3132	26.8078
31.9662	47.2707
32.5547	7.79071
32.5574	56.2605
33.0067	100.0
33.1603	51.1256
34.0545	46.7719
34.2838	4.43506
34.7266	55.7216
35.0464	47.251
35.1195	36.3262
35.129	49.7807
35.8289	45.1056
35.8445	11.4799
36.3983	47.2165
37.6046	2.30727
38.365	63.3346
40.5417	0.313923
41.1966	83.1674
41.4926	9.29543
41.8887	0.549925
42.7515	11.5605
43.504	13.5864
43.7068	91.6257
44.0574	8.9142
44.7606	0.0924914
45.5855	0.402872
45.681	0.0582241
45.9464	1.87466
45.9502	3.13876
45.9819	0.426272
46.1437	0.0207727
46.4953	12.1706
46.5798	2.43653
46.7742	5.90799
46.8181	11.4951
46.9973	0.00612367
47.4992	10.587
47.5241	32.8606
47.8081	1.83776
48.5366	10.2658
48.711	1.76537
48.7245	3.87814
48.7807	61.9317
49.5041	4.31606
49.823	3.79044
49.8349	2.75837
50.1263	0.275414
50.4415	0.125534
50.6342	11.1896
51.3113	8.36479
52.2688	0.416768
52.3417	7.62752
52.619	4.53982
52.963	27.3382
53.0595	8.21506
53.145	4.68858
53.4142	2.83868
53.5782	0.0689769
53.8148	9.11568
53.8262	51.332
54.8849	1.02775
54.9793	14.0424
55.3178	7.38067
55.4355	12.0725
55.6752	1.33088
56.337	11.2233
56.8957	0.0143742
56.9084	36.0845
56.9712	9.43222
57.0587	0.182136
57.2067	1.22679
57.8043	11.7843
57.8226	5.53025
58.0965	7.04598
58.4526	0.198368
58.8853	0.249615
59.0585	1.14424
59.1969	0.951179
59.2939	0.1954
59.9798	1.29304
60.4911	2.41895
61.1305	45.8344
61.4697	18.8217
61.4813	12.9461
61.696	1.34214
61.7672	49.3792
61.8983	10.6263
61.9606	10.938
61.9653	0.147441
62.0996	31.0942
62.1304	4.96918
62.8645	3.64972
62.8787	0.00178336
62.8892	2.73125
63.0561	2.65687
63.1817	2.55145
63.6452	0.105855
63.7033	4.15807
63.9807	8.32774
64.0029	0.032309
64.391	0.14443
64.4114	0.187594
64.4205	2.72025
64.4893	1.09054
64.5755	0.159197
64.7596	0.895305
65.0469	0.698005
65.3248	0.0307765
65.4418	1.55457
65.5278	0.14639
65.6699	1.35228
65.6865	0.254008
65.7753	1.62268
65.7949	2.94655
66.2434	3.82515
66.7235	1.44974
66.7874	0.829964
66.8311	10.2908
67.4097	0.115305
67.6455	0.942148
67.6677	5.89993
67.835	1.77727
67.8834	2.24886
67.9476	0.229504
67.9608	0.368234
68.1592	0.803273
68.1912	1.45763
68.1974	11.383
68.7686	4.08355
69.1862	4.33767
69.2417	26.8581
69.3636	2.26989
69.404	0.367316
69.5888	0.018437
69.5999	10.8533
69.685	0.365808
69.7179	1.87502
70.7606	1.94987
71.5595	0.511054
71.6984	12.6819
71.7663	0.264361
71.8073	0.00529247
71.9086	0.506059
72.0425	0.280667
72.0819	0.597571
72.2221	5.17362
72.24	2.18378
72.5808	0.0380376
72.6749	4.31477
72.8076	0.455436
72.9477	0.452003
72.9852	5.18146
73.2905	1.41386
73.6299	2.93802
74.0309	0.529862
74.0529	9.7874
74.2276	5.2242
74.2503	9.65289
74.3267	4.42445
74.6032	0.280843
74.9535	0.369736
75.0709	3.9776
75.6707	1.22186
75.932	0.677297
75.9605	0.0355816
75.965	3.33268
75.9695	8.46184
76.016	0.0343966
76.2309	4.87011
76.3994	0.386785
76.6362	0.147454
77.3119	7.4001
77.344	0.19439
77.458	0.63011
78.2382	0.0487697
78.5058	5.367
78.775	0.0154119
78.9147	0.221509
79.1047	3.06835
79.2726	0.0903973
79.277	0.0318269
79.2776	0.56878
79.2935	1.01887
79.5184	1.49105
79.7166	1.16204
79.913	1.36444
80.2558	0.0129511
80.2724	14.9654
80.3433	0.0890086
80.4101	2.74065
80.486	0.00827218
80.4944	11.3232
80.6132	2.57835
80.6491	0.131919
80.8765	0.400623
81.0385	0.264343
81.4158	0.207386
81.5743	0.555353
81.6687	0.68248
81.7323	4.85919
81.8762	5.671
81.9969	3.71146
82.1194	3.51337
82.1668	12.8822
82.2364	0.208081
82.2696	1.30978
82.3933	0.0102657
82.4794	1.5646
82.5726	0.598337
82.6088	0.0193065
82.6283	2.54282
82.6394	0.140928
82.7892	0.691068
83.8198	7.5869
83.8963	0.00681297
83.9134	0.305452
84.0915	1.29251
84.1437	0.896607
84.3268	7.79591
84.3514	0.00169958
84.546	1.57888
84.5476	0.922677
84.6587	0.518353
84.9142	0.226781
84.9672	1.58817
85.0837	1.45695
85.5246	0.0514509
85.5483	0.668493
85.5558	0.178059
85.6015	0.205802
85.7591	0.00568926
85.8142	0.377958
85.9594	2.96745
85.9925	0.00370124
86.0361	0.34436
86.0457	1.10957
86.2566	0.306845
86.4687	0.0189166
86.5605	3.05834
86.5917	0.492484
86.8152	0.393899
86.8728	0.00425749
86.9426	3.39977
87.4381	0.0871495
87.6262	2.74993
87.7229	8.3006
87.7688	2.2475
88.0334	3.13606
88.3533	0.127563
88.3561	0.14391
88.3961	0.00573453
88.4931	0.0039316
88.68	0.0307555
88.724	0.741227
88.8143	0.0805613
88.8974	1.30323
88.9763	0.028545
89.1403	1.40714
89.4213	0.0118246
89.4377	7.62557
89.4533	0.165996
89.4699	0.00794616
89.851	0.039409
89.9094	1.39841

File: MgMn2(FeO4)2.xy
# 2-theta (degrees)	Intensity
15.588	2.44511
17.8714	4.02354
18.3572	3.60447
23.799	6.60813
24.1706	100.0
25.1485	1.62642
26.2971	1.06729
29.7235	57.0509
30.714	48.025
31.4742	0.721775
36.1971	24.7735
36.4262	50.7314
36.6798	2.26569
37.2079	11.6432
39.6273	0.141793
40.1106	2.68724
40.5653	0.148948
40.7044	20.6251
40.8089	0.169616
41.463	5.67954
41.6342	9.37838
42.3117	0.350064
43.2793	13.6299
43.9362	0.508266
44.7146	12.5042
45.355	1.39442
48.0125	0.282897
48.7104	0.273434
49.5096	0.3705
51.6227	24.2385
51.6315	0.128939
51.8239	16.4861
51.8533	1.12129
52.4272	41.6455
53.1103	0.907869
53.6747	40.4968
54.1238	20.5095
54.2637	0.64854
54.9579	3.39919
55.5471	0.118681
55.5645	5.84828
56.6841	0.10586
57.1799	0.245708
58.0657	0.213699
58.137	0.0348806
59.549	0.0713679
59.6539	2.78379
59.8816	0.172591
60.5865	9.14174
61.2688	0.0948086
61.5782	0.544055
61.7245	0.305508
61.9644	7.61101
62.2629	0.884705
62.2893	6.34885
63.6458	7.47626
63.9656	0.207377
64.2929	5.34421
64.7947	0.223299
65.2536	28.4961
65.3944	7.36043
65.7009	12.8798
65.8917	0.0413541
66.7416	0.608097
67.1528	0.083741
67.6189	0.128598
67.9698	1.05848
68.7002	0.157728
68.8622	0.210628
68.9196	0.396669
69.2271	0.286808
69.4213	0.313646
70.2258	4.26063
70.3622	0.0583458
70.5141	2.24746
71.162	0.212375
71.5359	1.10588
72.0607	0.886108
72.5849	0.19623
73.1536	0.485097
73.3747	3.56912
75.2261	0.169687
76.0455	3.70255
76.8224	0.204393
76.8229	3.07634
77.3796	4.56337
77.8206	2.53304
77.998	2.77165
78.6466	2.37084
78.786	0.861686
78.9783	0.0696249
79.1086	2.8966
79.2931	6.79925
79.8455	0.215039
79.8765	2.37246
79.8767	0.195675
80.1681	1.5426
80.3055	0.103571
80.8121	0.182837
80.8568	1.56119
80.927	1.66635
81.0871	0.0645306
81.3155	0.0730539
81.3922	1.62349
81.4309	0.0169583
81.5536	0.0827201
82.941	2.09631
83.1003	0.0239852
83.2146	0.496183
83.6788	1.36008
85.2189	0.0908618
85.3634	0.130787
85.3845	0.0161444
86.0676	0.0279268
86.6056	4.00384
86.7183	0.0394683
87.2861	0.233704
87.4745	3.83414
87.7844	0.0735611
88.1469	7.60555
88.1538	0.369061
88.1778	1.59607
88.3049	1.0757
88.4198	2.12546
88.7149	0.0661626
89.2811	0.152465
89.5527	4.36638
89.7111	0.0606858

File: MgMn2O4.xy
# 2-theta (degrees)	Intensity
16.2615	0.00912189
17.6642	0.00805459
17.8954	1.8944
19.6518	0.041758
19.6982	6.60579
24.0219	97.8724
24.1749	100.0
24.2328	8.93654
24.3088	0.698475
30.4566	3.47801
30.5489	7.42947
30.9828	20.6853
32.0345	23.8157
32.1227	13.1309
32.4752	0.0714001
32.8626	70.2328
35.1017	5.7379
35.2643	19.3289
35.5489	81.1034
35.7666	12.9302
36.2469	34.1658
37.1793	0.505841
37.231	0.241697
37.4471	7.4119
37.6142	2.79525
37.652	8.60573
37.7164	3.65384
39.4221	0.268134
39.6184	0.420919
39.7776	19.3029
39.9134	19.9829
39.9967	2.69946
40.0106	19.395
40.2164	0.118689
44.1696	0.449828
44.3039	0.117835
45.3914	4.1756
45.5009	4.12331
45.6587	2.47017
45.9201	12.9646
46.0842	0.00515622
48.0311	3.38764
48.7454	2.57702
48.8491	4.28226
49.0368	0.0297639
49.1194	0.043116
49.1895	21.5711
49.5187	23.8995
49.5333	0.245115
49.5539	0.290071
49.6435	17.0477
49.8072	18.537
50.2125	0.0201176
50.9438	2.5474
51.1445	2.55478
51.236	57.0614
51.396	58.7354
51.7469	0.0281601
51.7866	0.0521748
52.4593	10.0878
52.754	1.00374
52.8729	0.0348917
53.5281	2.48095
53.674	4.05857
53.7607	3.0003
53.7902	1.82692
54.4963	3.73556
54.7834	0.36503
54.7847	0.0580065
55.0136	0.00170762
55.301	0.0666442
55.358	0.0815337
55.6273	6.14157
56.0963	0.180727
56.2841	0.113453
56.2906	6.20066
56.3469	4.01953
57.5007	0.0161223
57.7225	0.0708304
58.3059	1.38556
58.4159	5.45622
59.2412	0.0722357
59.5235	5.28217
59.6038	2.44751
59.8129	4.54543
60.0188	0.767542
60.0403	0.37901
60.1124	0.0947569
60.3427	6.2385
60.4246	46.9184
61.5895	5.55334
61.7492	0.357226
62.4518	1.26148
62.575	4.12407
62.9597	0.921569
63.3796	0.566185
63.3811	3.00592
63.5905	2.06799
64.5777	5.85307
65.0332	1.81593
65.1589	0.106452
65.2345	3.94698
65.2621	0.0334255
65.3096	0.0152698
65.463	0.0411727
65.512	22.3959
65.6465	3.43132
65.6527	0.0015347
65.8258	0.580699
65.9114	2.01473
66.0348	0.407393
66.1401	0.133381
66.2396	4.31255
66.9885	0.076104
67.1919	0.185808
67.3045	4.39033
67.8652	5.6302
67.9152	0.848511
67.9832	4.22976
68.0068	0.00365466
68.278	5.32607
68.4904	1.9718
68.5742	0.246848
68.6818	0.0418445
68.9061	1.91412
69.0456	0.191953
69.079	0.342924
69.6512	4.80678
69.8841	5.51541
70.018	0.0115816
70.2855	0.387089
70.3167	0.0220863
70.4512	1.59261
70.8591	6.8225
70.9252	6.87336
71.0654	0.0321771
71.4395	0.0277689
71.544	3.84196
71.6435	1.52013
71.6699	0.0424785
71.7746	0.0978117
71.7836	1.42284
71.7907	0.229435
71.9065	0.949154
71.9151	0.554348
72.0466	2.74066
72.267	1.52195
72.4401	3.46456
72.5646	1.51916
72.6216	4.5539
72.6627	0.348891
72.9648	4.07188
73.2613	1.28441
73.5057	0.306298
73.8497	0.243948
73.9472	0.211679
74.1851	0.135234
74.5741	0.334735
75.2574	11.1433
75.7815	2.23001
76.7251	2.57564
76.9437	3.79857
77.1738	3.54592
77.2611	0.793806
77.2623	0.049696
77.3686	0.00815213
77.4993	0.0132957
77.5633	0.0101943
77.6461	3.83751
77.6711	0.0303263
77.6884	1.53198
77.8367	1.19513
77.9703	0.544576
78.0069	1.20671
78.0553	0.0498856
78.098	0.677304
78.2622	1.02927
78.3424	1.84747
79.2227	0.00829782
79.3498	0.00790925
79.4312	1.52293
79.436	0.0362191
79.7021	0.002796
79.8828	4.8638
79.9865	0.00612941
80.227	0.464681
80.2962	1.92842
80.3378	1.3862
80.3899	5.56553
80.534	0.00893702
80.5495	2.28645
81.795	0.944196
81.9196	2.91969
81.9369	1.07958
82.0952	0.00316304
82.2842	0.0241226
82.4711	0.973305
82.5683	1.7628
82.9617	0.149129
83.1843	0.0736263
83.3415	0.0929353
84.3043	0.00445637
84.6588	1.55678
84.8172	0.00234622
84.8391	0.415176
85.1793	1.88817
85.289	2.08649
85.3405	0.55876
85.5634	1.76138
85.7486	1.0507
85.7922	0.0381356
85.8922	0.101356
86.0973	6.87257
86.3119	0.77497
86.3476	7.66946
86.3588	0.0108041
86.3744	0.0800224
86.4787	0.429959
86.729	0.611443
86.8479	1.89432
86.879	0.00435912
87.0668	2.35318
87.0841	3.05496
87.5061	0.187053
88.0474	0.00906882
88.0722	0.44357
88.1035	0.0172894
88.195	0.591571
88.3217	1.06579
88.6721	1.1577
88.8214	0.628981
88.8509	2.31793
88.8536	0.0290026
88.8621	1.2506
88.9871	0.256938
89.2837	0.00169032
89.322	1.16331
89.4883	1.15457
89.5047	1.11048
89.6601	2.82767
89.6756	1.40155
89.9879	1.61287

File: MgMn2O5.xy
# 2-theta (degrees)	Intensity
15.607	1.94285
18.1503	100.0
19.7755	0.209382
24.0244	16.6002
25.6438	42.5358
26.8383	36.198
29.8554	38.3864
30.1593	0.226761
31.5133	17.6089
35.0607	34.9489
36.6054	8.72182
36.6797	6.35498
36.777	13.1293
37.5549	13.6941
37.6503	2.1071
40.0826	4.14174
40.1729	5.95926
41.0601	5.0006
43.9618	2.90874
44.0256	0.00929467
44.1093	5.34182
47.8509	0.825335
48.0743	16.0983
49.0223	24.6072
49.1178	3.67967
49.1948	10.0156
51.7645	0.134903
51.7999	11.9357
52.6986	9.64562
52.9179	5.68385
53.3596	0.0218215
53.577	1.47362
55.1418	1.64583
55.2127	0.229996
55.2729	2.62905
55.3099	2.83503
55.5221	9.16614
56.4829	1.1169
57.1141	4.21316
58.463	9.40375
58.6677	1.35484
58.9815	0.00351201
59.4504	4.32761
60.0939	0.276859
61.9557	3.84252
62.0158	6.37163
62.0216	2.12554
62.7079	3.70979
62.8233	3.89907
62.9043	17.2318
63.2666	8.19373
63.4154	1.19523
65.1739	2.38139
65.7905	1.16478
66.1274	0.0037489
67.9406	1.2476
68.0512	2.69956
68.1289	0.669301
68.8804	0.0797531
69.4928	5.49333
69.5549	1.59582
71.0991	8.27242
71.2315	0.0742747
71.8458	1.40839
71.9857	5.39459
72.2769	4.66572
72.8305	2.68095
74.0872	6.72641
74.2687	1.75066
74.4817	1.08574
76.9209	0.164679
77.2053	0.148359
77.2703	0.749698
77.6999	1.18934
77.7568	0.02611
77.8164	0.00383917
77.9977	0.733692
78.2357	0.0732672
78.2399	1.26357
78.2514	0.723127
78.5371	3.02181
78.7747	0.00867689
79.8537	0.0263689
80.3857	0.00149923
80.971	4.02787
81.0904	0.929065
81.1211	0.213192
81.2979	1.00543
82.5261	3.12296
82.8197	4.98525
82.8248	1.5685
83.0544	2.21576
83.4818	0.64275
84.0131	1.3335
84.2307	2.84735
85.5126	0.622111
85.6041	0.292688
85.7576	0.325091
86.225	0.980228
86.2415	0.276955
86.5332	0.00182844
86.7666	0.115702
86.8263	0.0372156
86.8847	0.691529
88.2488	0.06088
88.3678	1.78692
89.0785	0.0533007
89.2532	0.0400532
89.7093	1.66499

File: MgMn3FeO8.xy
# 2-theta (degrees)	Intensity
18.1102	100.0
18.2055	62.8999
18.3792	35.7359
20.3717	1.70215
21.4181	2.37198
29.5571	0.782081
29.8968	1.2134
30.4226	0.825917
30.5204	0.451754
34.2247	4.60835
34.4267	11.3125
34.6713	6.69721
35.6237	7.66647
35.6321	6.08719
35.7764	23.8335
35.9119	7.86526
36.6937	9.75611
36.892	16.9358
37.2537	8.26808
41.4255	48.6043
43.6341	86.8086
46.3139	3.53374
46.4369	3.70589
46.7846	1.66659
46.8668	0.193626
47.0086	3.2253
47.3267	0.370658
47.5593	0.560673
47.5792	2.31076
47.9007	3.54051
48.3824	0.599158
48.8314	0.290752
49.0372	0.218087
49.1685	0.202112
51.8922	0.0926111
52.2563	0.536067
52.7434	0.317455
53.4375	0.205466
53.5236	0.269549
53.7327	0.0866958
54.064	0.14716
54.6812	7.3551
54.9237	2.7404
55.1956	1.81054
56.3482	0.703905
56.6688	1.33898
57.254	0.13555
57.4872	2.96677
57.5108	8.8809
57.6867	3.00906
57.8098	3.86796
61.35	23.5164
62.1149	24.4488
63.3041	11.9865
63.526	10.9749
63.6749	1.33063
63.8681	1.33786
64.0818	0.0174312
64.3362	6.7463
64.6107	1.34707
65.3889	1.76616
65.4596	1.82251
65.6398	0.1236
65.9004	0.198851
66.0138	1.689
66.2197	2.86491
66.2689	0.024684
66.4396	4.34616
66.5047	1.40136
66.5314	1.49327
66.7443	0.0535447
66.8715	1.43864
67.0999	0.230886
67.2501	0.0809083
67.7614	0.0827681
67.8293	0.103062
68.134	0.0405252
68.6774	0.106319
71.3173	0.0447569
71.8498	0.117166
71.8984	0.116708
72.039	0.311806
72.0549	0.023214
72.1002	2.31116
72.5783	3.94932
72.5847	0.743612
73.159	1.7949
73.362	1.73436
73.772	1.00716
73.9728	0.816083
74.2355	1.49715
74.8217	0.903206
75.4373	3.41272
75.4576	2.97888
75.8053	2.71138
76.1323	2.90318
78.0319	4.7287
78.2103	0.264957
78.4986	0.740232
78.5173	10.7362
78.8118	0.254508
79.4059	5.16905
80.1724	4.34154
80.2315	0.0843222
80.3231	0.912433
81.1763	0.906621
81.2553	0.00300174
81.452	1.3947
82.12	0.0168403
82.8723	0.232491
82.8871	1.08665
82.9173	0.415745
82.9874	1.47773
83.1268	1.27601
83.1389	0.0887521
83.2566	0.440873
83.4114	0.734691
83.983	0.0432839
84.0217	0.0537137
84.2822	0.0372848
84.4298	0.0953402
84.9373	0.00497394
85.5438	0.0256196
85.9212	0.539589
86.0044	0.00313541
86.1793	0.271518
86.1928	0.0584763
86.7699	0.250343
86.8677	0.14569
87.1023	0.495493
87.354	0.101388
87.4534	0.0363931
87.4926	0.0153572
87.6612	0.0720967
87.9853	0.608929
88.2961	0.0518806
88.431	2.88796
88.8522	0.72194
89.6699	0.618285
89.7511	0.411298
89.7657	0.369338
89.8052	0.475099

File: MgMn3O6.xy
# 2-theta (degrees)	Intensity
11.7405	10.8336
16.6596	100
19.4771	48.0512
21.3408	34.3106
23.6066	1.89536
27.6642	18.3778
30.3451	12.3154
30.9414	1.91949
33.6851	16.6283
34.6621	0.677605
35.0597	12.443
35.3283	38.1587
35.6215	13.7915
35.7365	28.8497
36.8856	0.161555
38.1171	0.193402
38.5207	30.8347
39.5472	1.14974
40.0601	0.12293
41.1732	17.537
42.9315	0.984886
43.4704	0.0262161
45.2212	7.32387
45.9358	1.03641
46.8335	1.20903
47.325	11.4675
47.467	5.84867
48.2973	0.387892
48.3204	64.0363
49.7611	2.15535
50.8808	26.1968
51.5214	0.0635763
51.8068	1.40952
52.4262	21.8044
52.6529	0.464927
53.0867	1.77826
53.6566	0.0567127
54.2311	4.19516
54.2473	1.59139
55.0706	0.944442
56.9878	4.46853
57.13	0.429347
57.5943	1.00534
59.7011	2.22286
60.763	4.03562
60.9891	3.78766
61.4164	0.0542062
61.5118	0.0660348
61.8742	3.48688
62.3807	2.70675
62.3959	1.12753
63.1283	0.115792
63.1476	13.0995
63.9423	23.966
64.4833	0.220094
64.9872	5.63297
65.6347	7.06544
65.8128	3.49304
66.0057	1.08079
66.4817	0.154618
66.6139	3.18645
66.7671	2.48694
67.4725	2.16155
67.487	0.48051
68.1746	1.64135
68.407	0.170064
68.5438	0.195232
69.1732	1.04038
70.2828	1.97064
70.7215	0.148899
70.8286	5.22672
71.1909	5.58063
71.6577	1.67411
71.8289	0.951778
73.1371	0.0857652
73.237	1.68811
73.4538	0.411393
73.5133	3.78929
74.0848	0.129559
74.7277	5.97616
75.3826	0.0914867
75.4319	0.0595752
75.7089	1.58105
76.1783	0.928505
76.2052	0.0106361
76.699	0.11829
77.1268	0.249611
77.2714	2.71273
77.3243	0.898126
77.333	1.55581
77.9853	5.47512
78.2046	3.64131
78.5016	0.106399
78.6132	0.0307973
79.3814	0.7445
79.7307	2.96231
79.7802	0.0176163
79.9361	0.00650149
80.1631	0.0535133
80.2519	0.866579
80.973	1.20905
81.5467	5.40801
82.0644	0.0434944
82.5574	4.18397
82.8452	0.0947099
83.2651	0.169341
83.2833	0.136834
83.6721	7.8685
84.395	0.833709
85.1584	0.00542139
85.761	0.0881481
85.8682	1.13046
85.9855	0.644313
86.4754	8.34741
87.0021	0.777763
87.9379	0.731124
88.6098	0.493507
89.1728	0.347732
89.1904	0.632601
89.376	2.96023
89.7794	0.0411111

File: MgMn3O7.xy
# 2-theta (degrees)	Intensity
17.0673	3.62241
18.3653	3.3053
18.4637	100.0
18.7004	1.44962
20.3618	0.356234
20.5774	0.651485
24.6872	11.9247
25.246	14.3261
25.4222	10.3322
26.1567	29.5849
30.1673	50.3829
30.5722	50.5942
31.8496	0.688299
31.9923	2.54168
32.4076	1.39608
32.8273	19.0949
33.5663	2.39252
34.1634	8.69161
34.5287	8.76698
35.9516	16.6507
36.8491	0.259229
37.2247	2.46226
37.4299	20.5405
37.9235	1.96939
38.4271	0.216082
38.4559	0.00886468
38.9383	7.26591
39.4331	3.43595
39.5517	0.910794
41.0467	10.1642
41.4046	0.415494
41.8265	1.25481
41.8587	1.1129
41.9983	1.78485
42.9083	0.0784498
43.2517	2.41665
43.5737	0.0495171
44.4814	2.20859
44.7541	9.61946
45.9721	1.04548
46.3902	2.9473
46.7777	1.67874
47.1213	1.12683
47.6794	4.1944
47.7813	0.0731472
48.0795	1.55978
48.3828	20.1942
49.0739	8.46074
49.3617	12.5216
50.3308	0.193769
50.6241	2.44435
50.7019	0.0353426
50.9732	0.48902
51.1102	0.00235954
51.1456	0.00700578
51.2885	0.0307694
51.4355	1.72202
51.8342	1.19281
51.9161	0.406723
52.2168	28.7698
52.8685	1.7616
53.5362	1.32317
53.817	0.109254
53.8985	1.1755
54.2828	3.37163
54.6754	0.116466
54.6888	8.92529
55.3187	0.122137
56.4824	0.00628327
56.484	0.587283
56.5744	0.424939
56.7474	1.62669
56.9631	2.15821
57.207	7.8526
57.3664	0.00708639
57.5395	0.232018
57.6346	1.95163
58.0799	5.47335
58.284	0.0516089
58.3403	1.18523
58.7448	6.24664
58.7626	1.35764
59.0785	0.762915
59.097	1.82501
59.1864	1.56338
59.4976	0.688288
60.2118	2.02739
60.4832	2.49493
60.6509	0.79859
60.936	2.21155
61.2601	1.23725
61.3846	0.0505144
61.6702	1.86415
62.4711	0.11258
62.7259	4.9925
63.0793	16.1253
63.1493	0.295569
63.3049	1.09596
63.6435	0.212721
64.0472	0.188866
64.228	0.159725
64.4635	0.0779231
64.7997	2.24576
64.9265	0.480116
65.1278	4.62603
65.1972	0.793736
65.6028	0.540989
65.8553	1.11328
65.9379	0.739177
66.5628	1.18862
66.5651	0.474691
66.8912	0.442501
66.9987	3.647
67.8504	0.00459435
68.3387	11.7841
68.5298	4.02917
68.7088	0.0171726
68.8241	1.60365
68.8653	0.163225
68.9514	1.12313
69.0336	1.49783
69.3549	0.120873
69.5912	1.5008
69.6127	6.84646
69.9752	1.67291
70.2842	0.214619
70.3848	2.36826
70.5498	2.19435
70.7616	0.00469996
70.8444	0.205294
71.3993	0.654309
71.4284	0.567099
71.5067	0.789108
71.7012	0.18594
71.9554	2.21887
72.0636	0.0896405
72.2554	0.809751
72.2825	0.433644
72.6176	0.191745
72.8202	2.23872
73.2643	0.161449
73.4137	0.625764
73.8628	1.83418
74.0421	2.81968
74.5904	0.0135913
74.8425	2.98646
75.011	1.03369
75.2492	2.21391
75.5445	0.0468685
75.5609	0.0573459
75.5654	0.0144894
75.7938	1.93321
75.8835	1.1358
75.9163	0.444167
75.9612	0.185685
75.9954	0.0966105
76.2284	0.481043
76.6163	0.338679
76.6787	0.0158256
77.1999	1.68355
77.2979	0.624336
77.6025	1.37378
77.8385	0.00818972
77.8934	0.258484
78.2307	0.0970242
78.3827	0.0683303
78.4122	0.47049
78.5378	0.342235
78.88	0.0664982
79.3345	0.00308875
79.3385	0.0412777
79.781	0.940531
79.8405	0.559999
80.0839	1.94603
80.4213	0.60302
80.4626	0.147055
80.4808	0.0654108
80.8195	0.137789
81.0641	0.628114
81.1793	0.00102793
81.7021	0.267875
81.7894	0.382462
81.9311	0.601491
81.9737	0.0286406
82.1566	0.113499
82.2021	0.0806479
82.3223	1.15064
82.3355	2.12163
82.3947	1.17111
82.616	0.268683
82.7929	0.769503
82.9457	0.175586
82.9791	0.97229
83.6103	0.0328547
83.6477	0.141524
84.1583	1.88221
84.191	1.69871
84.2354	1.68921
84.3258	0.00346747
84.5531	0.960223
84.6968	1.24211
84.867	1.1078
84.9317	2.18482
85.1698	0.0649089
85.5078	0.10138
85.5666	0.706746
85.8069	0.482242
86.0288	0.779546
86.0848	0.145457
86.748	0.256375
86.7759	0.0288938
86.8235	0.0809721
86.89	0.244464
87.1492	1.802
87.1601	0.20929
87.494	0.137986
87.7357	0.776139
87.7972	1.30461
87.858	0.00669733
88.0222	0.731902
88.076	0.136139
88.3669	0.065398
88.8621	0.011894
89.0371	0.443499
89.0433	0.216671
89.4204	0.0345235
89.6742	0.681278
89.9281	0.469261
89.9868	0.140934

File: MgMn4(FeO4)2.xy
# 2-theta (degrees)	Intensity
16.4011	26.2374
17.5509	7.83201
17.5818	1.75283
17.7212	3.86478
19.5096	0.791659
19.8688	2.37122
20.6853	2.59074
27.1291	14.7271
27.7833	11.5601
28.2211	9.07952
28.8202	51.6185
29.3639	47.7061
29.4381	47.9541
31.6533	20.898
32.191	17.3812
32.9882	50.9462
33.0394	67.9513
33.1508	100.0
33.2551	5.37656
33.3532	49.9627
33.6337	67.5452
33.8025	64.6704
34.0844	62.6799
34.402	60.5866
34.6258	60.2
35.0491	50.1876
35.5313	10.0422
35.5954	9.39327
35.8849	5.91548
39.6154	77.0352
40.3685	79.5643
41.8298	0.196796
42.0861	69.6639
42.7127	1.32822
43.2537	1.08508
43.3184	13.6384
43.5594	17.8337
44.0222	14.443
44.0837	17.4875
44.2173	8.00109
44.9237	11.9439
44.9542	14.7632
45.0654	0.24947
45.2443	1.08943
45.7398	13.0668
45.7815	1.49876
45.8155	0.0145319
45.942	1.96331
45.9971	0.0832113
46.1435	13.096
46.3195	0.488328
46.5922	0.149506
47.2727	0.0277312
47.7497	0.219117
47.8147	0.378069
49.0382	0.267122
50.0679	3.08109
50.165	2.65365
50.4301	2.46371
50.6707	0.105358
50.9635	1.34747
51.0722	37.7449
51.3594	9.16954
51.4992	9.56782
51.5942	1.44275
52.0245	0.940225
52.1067	31.1927
52.462	2.94244
52.5056	8.08844
52.5207	3.73652
53.2666	1.88251
53.5199	10.3948
53.5878	2.11063
54.2511	32.3182
54.2616	10.2926
54.4759	12.2379
54.5788	15.8748
55.0444	15.9452
55.3911	1.37336
55.6476	1.06077
55.9494	37.5604
56.2934	16.6935
57.3933	37.603
58.0517	13.8629
58.3642	33.2211
58.6699	14.169
58.7418	0.905466
58.7708	8.43983
59.67	1.004
59.6986	62.8135
59.7729	1.02998
59.9097	8.80243
60.1805	0.892188
60.3869	0.944661
60.4307	0.679109
60.7015	11.0793
60.9159	56.5698
61.0826	55.8548
61.1008	5.88052
61.2201	11.323
61.6951	0.408255
61.8343	6.72246
61.9945	0.792665
62.2138	0.0104219
62.3375	5.75127
62.5287	0.29724
62.5648	0.0505326
62.7318	0.224595
62.9186	4.03543
62.919	0.34246
62.9627	0.00308842
63.0598	0.125976
63.1484	0.158173
63.535	0.500955
63.608	0.0151718
63.7023	0.00966299
63.892	4.33297
63.9857	0.101454
64.079	0.263275
64.3639	0.713053
64.5642	0.438588
64.6838	0.0119059
64.7363	0.0149398
64.7515	0.00829181
64.8187	0.0128817
64.8875	1.33831
64.9781	0.166241
65.1773	3.32611
65.5603	1.00969
66.1116	1.01583
66.2356	1.16557
66.4835	1.33507
66.828	2.86
67.2891	0.547612
67.3495	1.02535
67.3914	0.722736
67.5307	0.120295
67.9356	0.0577682
69.1984	13.1921
69.318	11.7648
69.398	1.9633
69.5471	0.904231
69.5778	25.004
69.7791	1.69468
69.8214	0.727535
69.8229	0.541551
69.9642	0.44452
70.0507	13.218
70.6017	0.259072
70.708	11.625
71.0989	0.948398
71.1046	2.50259
71.1306	5.78242
71.1553	5.32138
71.768	0.477509
71.7689	1.4268
71.8857	3.11151
72.2053	6.90205
72.5198	10.4715
73.0509	10.3805
73.1053	6.45903
73.3397	0.33182
73.6432	4.27951
73.7604	3.92399
73.9702	0.313827
74.0595	1.7031
74.6336	0.443689
74.6352	0.328752
74.7028	0.0733103
74.7485	7.1263
74.9535	4.14087
75.2151	7.27019
75.3691	8.00695
75.3885	0.568919
75.5493	4.67873
75.9188	1.65363
76.0052	0.21266
76.0672	9.62445
76.1	0.682211
76.2829	0.365617
76.3216	0.844581
76.3771	0.00682354
76.7185	0.935772
76.9497	5.18869
77.2378	3.1114
77.6623	1.01344
77.735	0.767214
77.7847	0.00889053
77.8028	0.352356
78.0009	0.0765571
78.2506	0.00515952
78.2699	3.30615
78.4971	0.70928
78.5596	2.10622
78.8679	0.141743
78.9189	0.00229332
79.0058	0.00471002
79.1258	0.826513
79.2029	1.10903
79.2907	0.00612098
79.3744	0.125867
79.5186	0.0298158
79.6828	0.238986
79.7134	0.00113215
79.7301	0.0440304
79.8194	0.015905
79.8775	1.51886
79.8821	0.0475523
79.953	0.179113
80.353	0.0602225
80.6602	1.59359
81.063	0.543055
81.3163	0.025001
81.3399	0.0821107
81.4475	0.509798
81.4928	0.0403316
81.6191	0.00697907
81.8941	0.0701848
82.1359	0.877925
82.4855	0.17674
82.5525	1.95716
82.7362	1.98289
82.7712	0.65504
82.912	6.09922
83.028	0.00232469
83.0372	0.00399621
83.2242	1.31032
83.3516	1.84661
83.395	0.866049
83.645	1.92468
83.6626	1.43088
83.9363	0.699029
84.1124	3.22111
84.2386	8.45641
84.25	4.24798
84.2889	0.300611
84.6156	3.02588
84.6536	0.617399
84.6888	0.167547
84.7397	0.970916
84.8636	1.77513
84.8996	1.3631
84.9734	1.82819
85.0253	0.035193
85.0467	3.19747
85.1155	3.31597
85.3328	10.1309
85.5638	3.15698
85.5735	6.411
85.6764	1.14496
85.683	3.31539
85.7194	4.14498
85.8619	0.0398656
85.9952	2.23474
86.2685	2.2376
86.4084	4.08891
86.7707	4.36885
87.1314	0.666538
87.161	0.266543
87.273	8.06839
87.5188	0.375042
87.6227	0.176733
87.9729	0.0677273
88.3512	4.3822
88.4052	4.40668
88.6089	2.96658
88.9772	0.221937
89.0504	0.246951
89.4368	0.306176
89.5487	0.04751
89.7443	0.0905963
89.7939	0.233001